accel_x,accel_y,accel_z,gyro_x,gyro_y,gyro_z,temp_c,category
1.27,7.73,-4.34,-2.95,0.86,-0.26,22.67,4
1.21,9.66,-1.43,-3.28,1.15,0.76,22.69,4
1.87,9.33,2.86,-4.19,0.76,1.07,22.68,4
1.5,8.33,5.66,-3.44,0.55,0.3,22.68,4
0.91,4.2,8.0,-2.9,0.77,-0.94,22.69,4
-0.31,1.98,9.2,-2.2,0.34,-0.45,22.69,4
-0.78,0.54,9.45,-1.89,0.35,-0.21,22.7,4
-0.52,-2.34,8.32,-1.67,-0.19,0.05,22.69,4
-1.02,-2.41,8.31,0.1,-0.13,0.16,22.7,4
-0.64,-2.33,8.08,1.51,-0.48,0.42,22.7,4
-1.04,1.01,9.62,2.26,-0.29,0.4,22.71,4
-0.51,2.85,9.07,2.48,-0.5,0.1,22.7,4
0.91,4.58,7.57,2.68,-0.43,0.19,22.71,4
1.1,7.41,5.02,3.0,-0.4,0.7,22.71,4
1.57,10.32,1.84,3.27,-0.51,0.3,22.72,4
2.35,9.71,-1.49,3.01,-0.55,0.03,22.72,4
2.23,8.99,-5.11,3.23,-0.68,0.18,22.72,4
1.75,6.64,-8.23,3.64,-0.88,0.16,22.73,4
0.6,2.89,-10.12,3.24,-0.87,0.01,22.73,4
-0.15,-1.2,-10.53,3.97,-0.58,0.23,22.73,4
-1.11,-5.25,-8.38,4.58,0.12,0.11,22.72,4
0.13,-8.55,-3.93,2.65,-0.17,-0.18,22.74,4
-0.65,-9.33,-1.7,1.94,0.0,0.54,22.74,4
-2.04,-9.66,-0.47,2.14,0.07,0.67,22.74,4
-2.01,-8.57,3.16,3.46,-0.15,-0.37,22.73,4
-1.62,-6.42,6.69,3.07,0.1,0.14,22.73,4
-1.98,-3.85,7.57,2.23,0.09,0.39,22.74,4
-2.42,-1.95,8.67,1.79,-0.03,0.48,22.73,4
-2.48,0.47,8.85,1.44,-0.26,0.24,22.73,4
-2.26,1.92,8.84,0.81,-0.38,0.04,22.74,4
-2.07,1.6,9.85,-0.14,-0.05,-0.05,22.74,4
-1.84,1.09,9.46,-1.47,0.28,0.17,22.74,4
-2.88,-0.7,8.34,-2.12,0.59,0.15,22.75,4
-3.68,-3.06,7.89,-3.46,0.52,0.39,22.74,4
-4.15,-5.81,4.78,-4.66,0.27,0.16,22.75,4
-4.17,-8.61,-1.34,-3.78,0.21,0.14,22.75,4
-4.44,-8.65,-3.64,-2.15,0.08,-0.09,22.76,4
-4.26,-6.94,-5.08,-2.25,0.18,-0.06,22.75,4
-4.13,-5.95,-7.34,-1.82,0.2,-0.39,22.75,4
-3.34,-5.45,-7.97,-1.95,0.86,-0.12,22.75,4
-3.63,-3.27,-9.64,-0.89,0.16,0.18,22.76,4
-3.69,-1.56,-9.09,-1.26,0.25,0.19,22.75,4
-3.36,-1.19,-10.25,-1.41,-0.15,0.17,22.76,4
-1.61,0.65,-9.35,-2.13,0.06,-0.08,22.75,4
-2.76,2.71,-9.46,-2.67,1.22,0.81,22.75,4
-0.13,6.02,-7.71,-3.37,1.65,0.49,22.74,4
1.32,8.35,-4.71,-3.7,1.64,0.42,22.74,4
2.57,9.55,-0.87,-3.0,1.5,0.27,22.74,4
2.1,9.49,2.97,-3.26,1.3,-0.32,22.74,4
1.27,7.8,5.38,-3.44,0.62,-0.09,22.73,4
1.53,5.3,7.74,-2.39,0.68,-0.23,22.75,4
0.12,3.59,9.07,-1.69,0.57,-0.75,22.74,4
-0.11,0.52,9.07,-1.56,0.34,-0.63,22.74,4
-1.0,-0.26,9.48,-1.37,0.24,-0.5,22.74,4
-0.73,-3.24,7.99,-1.24,-0.05,-0.44,22.73,4
-0.99,-3.14,8.65,0.31,0.09,-0.33,22.75,4
-0.79,-2.13,8.17,2.26,-0.64,0.19,22.74,4
0.1,2.04,7.96,3.56,-0.94,0.55,22.75,4
1.48,6.08,6.75,3.68,-0.67,0.12,22.75,4
0.83,10.15,2.95,4.11,-0.46,0.13,22.75,4
0.3,11.1,-1.2,4.04,-0.72,0.03,22.76,4
0.88,8.81,-5.51,3.61,-0.85,-0.09,22.75,4
0.75,6.14,-9.4,4.55,-0.85,-0.25,22.76,4
-0.67,1.53,-10.49,2.39,-1.2,-0.17,22.77,4
-1.44,-2.11,-9.59,2.64,-0.5,0.01,22.77,4
-1.28,-4.17,-9.48,2.62,0.38,0.08,22.77,4
-1.34,-6.22,-7.35,1.88,0.28,-0.02,22.76,4
-1.13,-7.5,-7.3,1.57,0.1,0.09,22.77,4
-0.44,-8.65,-4.47,0.85,0.66,-0.04,22.76,4
-1.1,-8.89,-6.41,1.93,0.55,0.04,22.77,4
-1.24,-9.26,-3.25,2.78,0.46,0.4,22.78,4
-0.58,-8.89,1.94,3.14,-0.08,-0.21,22.78,4
-1.92,-7.8,3.59,3.29,-0.33,0.68,22.78,4
-1.71,-6.48,7.08,2.18,-0.19,0.54,22.78,4
-2.22,-3.9,8.01,1.88,-0.17,0.65,22.77,4
-2.24,-1.92,8.67,1.96,-0.16,0.83,22.77,4
-2.0,0.01,9.48,1.51,-0.34,0.43,22.77,4
-1.96,1.72,8.74,0.75,-0.26,0.16,22.77,4
-2.17,1.68,9.84,-0.48,-0.24,-0.04,22.77,4
-2.02,-0.09,9.8,-2.52,0.09,-0.28,22.77,4
-2.21,-2.33,8.53,-3.31,0.17,-0.29,22.78,4
-1.78,-5.86,6.53,-3.74,0.14,-0.06,22.77,4
-2.73,-7.97,1.1,-4.54,0.17,0.22,22.77,4
-2.41,-8.31,-3.47,-4.08,0.08,0.16,22.78,4
-2.23,-6.61,-6.2,-3.01,0.39,0.03,22.77,4
-2.52,-5.93,-9.64,-2.31,0.36,-0.14,22.78,4
-2.07,-4.01,-9.47,-1.23,0.01,-0.07,22.77,4
-0.64,-2.64,-10.6,-1.69,0.57,0.19,22.77,4
0.01,-0.97,-10.86,-1.7,0.56,0.06,22.78,4
-0.2,0.55,-10.8,-1.0,0.45,-0.11,22.77,4
2.5,3.04,-8.77,-1.85,1.19,0.16,22.78,4
3.07,5.58,-8.94,-2.86,1.59,0.45,22.78,4
5.56,7.91,-4.97,-3.17,1.81,-0.06,22.79,4
4.66,9.02,-1.48,-3.38,1.48,-0.23,22.78,4
4.19,7.83,3.01,-3.71,1.05,-0.42,22.8,4
3.34,7.38,6.91,-4.25,1.26,-1.11,22.78,4
0.92,4.09,8.97,-3.01,1.37,-1.89,22.78,4
0.15,0.3,9.5,-1.61,0.82,-1.12,22.79,4
-1.05,-1.8,9.2,-1.3,0.48,-0.91,22.79,4
-1.24,-3.37,8.52,-0.78,0.03,-0.35,22.79,4
-1.5,-3.14,8.21,0.78,-0.5,0.13,22.79,4
0.67,-1.36,9.39,2.69,-0.89,0.6,22.78,4
0.78,3.95,8.84,3.68,-0.94,0.86,22.79,4
1.52,6.63,6.26,3.49,-0.9,0.35,22.79,4
2.64,8.56,2.69,4.52,-0.61,0.16,22.78,4
3.84,10.13,-2.12,4.19,-0.57,-0.08,22.79,4
2.9,7.66,-5.71,3.69,0.05,0.15,22.79,4
2.52,5.54,-8.42,3.6,-0.56,-0.18,22.78,4
1.38,1.34,-10.74,2.6,-0.43,-0.15,22.79,4
1.09,-1.48,-10.84,2.66,-0.37,-0.15,22.78,4
0.64,-4.09,-9.63,1.99,-0.08,0.08,22.79,4
0.67,-5.62,-8.93,2.36,0.51,0.51,22.79,4
0.59,-8.03,-7.21,1.57,0.02,0.07,22.79,4
-0.85,-8.31,-4.62,0.64,-0.01,0.72,22.79,4
-0.11,-8.73,-3.18,1.92,0.0,0.09,22.79,4
-0.24,-9.25,-1.47,2.36,0.2,0.35,22.79,4
-0.83,-9.54,1.39,2.81,0.16,0.09,22.8,4
-0.62,-8.45,4.32,2.49,0.22,0.4,22.8,4
-2.67,-6.08,6.18,3.01,0.02,0.73,22.79,4
-2.35,-4.71,8.73,1.65,-0.11,0.73,22.79,4
-2.48,-1.99,8.92,1.49,0.03,0.64,22.79,4
-2.75,-0.37,8.82,1.9,-0.24,0.38,22.8,4
-2.76,0.98,8.32,1.11,-0.42,0.1,22.8,4
-1.91,2.05,9.26,-0.13,-0.18,0.25,22.8,4
-1.64,1.2,10.6,-1.88,-0.07,0.04,22.8,4
-2.36,-1.09,9.74,-3.55,0.28,-0.48,22.8,4
-2.18,-5.69,5.67,-5.01,0.14,-0.08,22.81,4
-2.67,-8.0,1.22,-4.55,-0.15,0.53,22.8,4
-3.0,-8.6,-3.76,-2.76,-0.05,0.36,22.8,4
-2.9,-8.13,-5.19,-1.08,0.06,-0.09,22.8,4
-2.64,-7.65,-7.32,-1.41,0.44,-0.26,22.81,4
-3.3,-5.67,-6.45,-1.36,0.32,-0.13,22.81,4
-1.89,-5.46,-8.66,-1.47,0.62,-0.21,22.81,4
-1.64,-4.66,-9.16,-0.87,0.76,0.3,22.81,4
1.39,-2.29,-8.99,-1.29,1.39,1.02,22.81,4
2.25,-0.74,-10.8,-2.1,2.53,-0.02,22.81,4
4.66,1.44,-10.4,-2.61,2.28,-0.79,22.81,4
6.36,4.16,-6.51,-3.31,1.85,-1.62,22.81,4
6.17,7.4,-2.0,-3.27,1.49,-1.93,22.82,4
4.68,8.55,1.39,-3.18,1.14,-1.53,22.81,4
3.45,8.81,5.23,-3.07,1.13,-1.72,22.81,4
1.1,6.11,7.16,-3.14,0.65,-1.88,22.8,4
0.31,2.37,8.48,-3.18,0.34,-1.51,22.81,4
-0.61,-0.79,9.36,-1.67,0.43,-0.96,22.81,4
-0.83,-2.57,8.24,-1.08,0.32,-0.65,22.81,4
-1.54,-2.17,8.52,0.15,0.04,-0.17,22.8,4
-1.37,-1.84,8.12,1.99,-1.26,0.64,22.81,4
0.61,3.53,8.89,3.57,-1.0,0.41,22.82,4
1.96,6.22,6.29,4.52,-1.0,-0.04,22.8,4
2.1,10.06,2.46,4.72,-0.3,0.02,22.81,4
0.49,10.75,-2.76,4.11,-0.46,-0.24,22.82,4
0.85,7.92,-6.73,3.92,-0.42,-0.43,22.82,4
-0.08,4.53,-9.52,3.77,-0.5,-0.54,22.83,4
0.97,1.12,-9.39,3.0,-0.73,-0.39,22.82,4
0.09,-2.12,-9.12,1.79,-0.05,0.18,22.82,4
-0.86,-3.99,-9.84,1.17,0.1,0.17,22.82,4
-0.79,-5.09,-9.48,1.24,-0.21,0.36,22.82,4
-1.66,-7.33,-9.53,2.32,-0.04,0.4,22.82,4
-1.34,-8.69,-4.23,4.3,0.4,0.02,22.82,4
-1.57,-9.12,-0.55,3.57,0.49,-0.51,22.82,4
-0.12,-8.39,3.82,3.09,0.31,-0.1,22.82,4
-1.1,-6.41,5.66,2.96,-0.12,0.72,22.84,4
-1.8,-4.31,7.41,2.6,-0.23,0.61,22.83,4
-1.58,-1.39,8.45,2.64,-0.35,0.62,22.83,4
-0.98,1.16,8.81,1.82,-0.33,0.19,22.82,4
-0.68,3.0,9.48,0.91,-0.25,-0.01,22.84,4
-0.9,1.83,10.04,-1.19,-0.06,0.16,22.82,4
-0.71,0.29,9.81,-2.67,0.51,0.15,22.83,4
-1.34,-2.85,8.3,-3.39,0.2,0.19,22.83,4
-2.09,-5.46,6.51,-3.99,0.14,0.39,22.83,4
-2.42,-8.28,1.17,-4.16,-0.07,0.01,22.83,4
-2.27,-8.97,-1.5,-3.26,0.09,-0.08,22.83,4
-1.58,-9.17,-4.58,-2.47,0.04,-0.14,22.82,4
-1.39,-7.73,-6.66,-1.6,-0.02,-0.03,22.83,4
-0.34,-7.1,-8.22,-0.84,-0.43,-0.07,22.84,4
-1.18,-6.28,-7.64,-0.83,-0.13,-0.12,22.84,4
-0.59,-6.32,-8.49,-0.51,-0.09,0.11,22.83,4
-1.54,-5.63,-9.5,-0.44,-0.2,-0.1,22.83,4
-0.7,-4.27,-8.76,-0.32,-0.22,0.08,22.84,4
-1.07,-3.64,-9.2,-0.38,0.11,0.35,22.84,4
-1.63,-4.07,-9.12,0.04,-0.16,0.49,22.84,4
-1.97,-2.07,-9.12,-2.34,0.24,0.25,22.83,4
-2.01,0.28,-10.08,-2.99,0.8,-0.23,22.84,4
-0.88,3.75,-9.88,-3.57,1.09,-0.48,22.84,4
-0.09,6.98,-7.24,-3.18,0.82,-0.46,22.84,4
-0.53,7.93,-4.08,-3.44,0.61,-0.8,22.83,4
-1.52,9.56,-1.27,-3.12,0.04,-1.23,22.84,4
-1.26,9.09,2.8,-2.73,-0.32,-0.09,22.83,4
-1.25,8.0,5.4,-2.95,-0.09,-0.31,22.83,4
-1.28,5.28,8.06,-2.95,-0.39,-0.78,22.82,4
-1.36,0.98,8.61,-3.75,-0.21,-0.77,22.83,4
-1.41,-0.54,9.28,-0.37,0.04,-0.11,22.83,4
-2.29,-0.42,8.29,0.56,-0.09,0.4,22.83,4
-1.36,1.35,8.4,2.69,-0.51,0.61,22.82,4
-1.68,6.72,7.79,3.93,-0.35,0.59,22.83,4
0.5,8.76,5.07,3.76,-0.6,0.52,22.82,4
0.57,9.83,1.47,3.72,-0.38,0.29,22.84,4
0.58,10.18,-2.84,3.74,-0.71,0.24,22.84,4
0.52,8.18,-7.28,4.31,-0.73,0.11,22.86,4
0.05,4.21,-9.53,4.2,-0.92,-0.02,22.85,4
-0.5,-0.42,-9.15,3.54,-0.53,0.11,22.85,4
-0.55,-3.45,-9.96,1.6,-0.43,0.19,22.86,4
-2.36,-5.48,-8.09,1.82,-0.7,0.57,22.86,4
-3.36,-5.79,-7.32,0.4,0.45,-0.58,22.85,4
-1.32,-7.45,-5.01,2.92,0.41,-0.4,22.86,4
-1.8,-8.5,-2.5,4.27,0.3,-0.17,22.85,4
-1.5,-8.54,2.93,3.85,0.23,0.33,22.86,4
-2.47,-6.93,5.37,2.9,0.03,0.13,22.85,4
-2.52,-4.45,7.35,2.64,0.03,0.32,22.85,4
-2.43,-3.25,8.05,2.09,0.09,0.27,22.85,4
-2.79,-1.18,8.39,1.57,-0.11,0.31,22.86,4
-2.49,0.77,8.67,1.87,-0.46,0.25,22.86,4
-1.95,3.72,8.71,1.01,-0.39,-0.02,22.85,4
-2.07,2.99,9.71,-0.69,-0.02,0.02,22.85,4
-0.86,2.17,10.11,-3.28,0.0,0.17,22.86,4
-2.17,-3.14,6.84,-4.72,0.0,0.22,22.87,4
-2.11,-6.88,4.87,-3.7,-0.28,0.8,22.87,4
-3.66,-7.8,1.44,-4.35,-0.19,0.78,22.87,4
-3.82,-8.35,-5.32,-3.88,-0.5,0.65,22.87,4
-3.86,-7.18,-5.2,-1.62,-0.04,0.41,22.87,4
-4.38,-6.78,-7.83,-1.21,-0.34,0.12,22.87,4
-4.0,-5.96,-7.56,-0.63,-0.12,0.19,22.87,4
-4.85,-4.91,-7.91,-0.92,0.12,0.08,22.87,4
-5.15,-4.24,-9.49,-0.78,-0.0,0.17,22.87,4
-4.37,-4.05,-7.19,-1.53,0.73,0.72,22.87,4
-2.62,-0.05,-9.64,-2.87,2.54,1.28,22.88,4
-0.12,3.55,-10.5,-3.93,2.97,0.61,22.87,4
2.79,7.32,-7.43,-3.98,2.14,-0.39,22.87,4
3.3,9.44,-2.67,-4.22,1.43,-0.9,22.87,4
2.41,10.26,0.99,-2.66,0.81,-0.78,22.87,4
0.53,8.31,4.58,-3.9,0.74,-0.99,22.87,4
-1.24,6.29,7.05,-2.93,0.47,-1.59,22.86,4
-0.33,1.77,8.71,-3.97,-0.03,-1.01,22.87,4
-0.9,-1.91,8.48,-1.69,-0.12,-0.15,22.87,4
-1.55,-2.31,7.02,1.25,-0.44,0.67,22.87,4
0.26,2.64,8.65,4.13,-1.05,0.39,22.86,4
1.73,7.16,6.71,5.19,-0.75,0.25,22.88,4
0.35,10.85,2.35,4.93,-0.85,-0.11,22.87,4
0.77,9.72,-1.22,3.21,-0.81,-0.35,22.86,4
1.7,8.76,-4.71,3.25,-0.18,0.1,22.87,4
1.27,7.14,-8.9,3.27,-0.04,-0.0,22.87,4
0.47,3.57,-9.78,3.73,-0.2,0.06,22.88,4
0.05,0.42,-11.08,1.36,-0.61,-0.04,22.88,4
-0.5,-1.58,-10.49,2.09,-0.56,0.27,22.88,4
-0.82,-3.5,-8.96,1.69,-0.01,0.58,22.88,4
-1.3,-5.45,-9.3,1.07,-0.59,0.78,22.88,4
-2.45,-6.29,-7.08,2.7,0.18,0.04,22.87,4
-1.48,-8.0,-4.3,4.33,-0.08,-0.18,22.88,4
-1.52,-9.01,1.13,3.79,-0.04,-0.01,22.88,4
-1.36,-7.79,4.93,2.87,0.04,-0.1,22.89,4
-1.49,-5.14,7.71,2.33,-0.14,0.19,22.88,4
-1.03,-3.64,8.63,2.27,-0.01,0.66,22.89,4
-1.72,-0.61,9.3,2.06,0.17,0.56,22.88,4
-1.8,1.53,8.97,1.47,-0.29,0.27,22.89,4
-1.66,3.39,8.96,0.27,-0.38,0.31,22.89,4
-0.56,2.02,10.97,-1.92,-0.19,0.17,22.9,4
-1.39,-1.84,8.62,-3.97,0.15,0.2,22.89,4
-1.38,-5.1,7.48,-2.93,0.03,0.54,22.89,4
-1.84,-6.95,5.65,-3.46,-0.1,0.55,22.9,4
-2.7,-8.07,1.81,-3.11,0.0,0.52,22.9,4
-3.73,-8.54,-1.24,-1.84,0.12,0.64,22.9,4
-3.01,-9.84,-4.98,-0.52,0.03,0.21,22.89,4
-2.56,-8.34,-2.96,-1.34,0.33,-0.04,22.89,4
-3.44,-7.98,-5.66,-2.1,0.51,0.05,22.9,4
-4.12,-7.36,-5.63,-1.58,0.17,1.06,22.9,4
-2.36,-4.47,-9.02,-2.83,1.99,-0.07,22.89,4
0.97,-0.66,-10.24,-3.3,2.15,0.11,22.9,4
2.12,2.49,-9.65,-2.56,2.02,-0.35,22.9,4
3.81,6.35,-9.24,-3.01,1.27,-0.69,22.9,4
2.68,8.63,-6.22,-3.2,0.81,-1.02,22.89,4
2.21,9.54,-2.24,-3.3,0.52,-0.73,22.91,4
1.72,9.87,2.18,-3.58,0.19,-0.42,22.91,4
0.65,7.53,6.3,-3.99,0.07,-0.91,22.89,4
-0.51,4.66,8.65,-3.41,0.53,-1.31,22.91,4
-0.95,-0.26,8.29,-2.78,-0.19,-0.84,22.9,4
-1.03,-2.17,8.25,-0.79,-0.01,-0.26,22.91,4
-0.69,-3.05,7.51,0.43,-0.27,0.39,22.89,4
0.87,-0.34,7.88,3.74,-1.17,1.36,22.9,4
0.48,6.93,6.43,5.02,-1.02,1.12,22.89,4
1.58,10.79,3.92,3.79,-1.08,-0.04,22.91,4
2.81,9.02,-1.01,3.69,-0.85,-0.35,22.9,4
4.05,9.81,-6.05,4.41,-0.93,-0.29,22.9,4
2.59,6.78,-8.9,4.31,-0.43,-0.12,22.91,4
1.07,1.35,-8.39,2.93,-0.64,-0.01,22.91,4
0.03,-0.69,-10.79,1.38,-0.73,0.11,22.9,4
-0.0,-2.49,-10.05,2.05,-0.08,0.49,22.91,4
-0.39,-4.5,-9.01,2.33,-0.29,0.41,22.91,4
0.45,-6.97,-10.04,0.99,-0.25,0.71,22.9,4
-1.83,-7.33,-8.16,3.01,0.05,0.16,22.92,4
-1.25,-8.84,-3.49,4.05,0.18,-0.37,22.93,4
-0.0,-8.81,2.5,4.0,-0.16,0.05,22.92,4
-0.88,-7.26,5.62,2.91,-0.25,0.19,22.92,4
-1.17,-4.65,7.5,2.63,-0.3,0.19,22.91,4
-0.18,-2.26,9.31,2.32,0.03,0.29,22.92,4
-1.53,0.3,8.64,2.12,-0.35,0.1,22.91,4
-0.32,3.09,9.23,1.17,-0.47,0.15,22.91,4
-0.17,0.93,10.26,-1.36,-0.27,0.49,22.92,4
0.93,-0.69,9.89,-2.74,0.15,0.92,22.91,4
-0.28,-2.92,8.35,-3.09,0.22,1.24,22.92,4
-1.56,-6.04,5.28,-4.02,0.2,0.78,22.92,4
-2.73,-8.78,-0.07,-3.96,0.09,0.27,22.92,4
-2.57,-9.68,-1.82,-2.12,0.16,0.33,22.93,4
-3.13,-9.36,-3.72,-1.82,-0.03,0.1,22.93,4
-1.76,-8.63,-2.57,-1.17,0.37,-0.18,22.93,4
-0.67,-8.79,-6.32,-1.53,0.29,0.22,22.92,4
-2.08,-7.59,-7.02,-1.85,0.66,0.09,22.93,4
-2.23,-5.54,-8.43,-0.98,0.36,0.77,22.92,4
-2.12,-3.77,-8.41,-2.03,1.5,0.6,22.92,4
0.14,-1.09,-9.46,-1.94,2.12,0.03,22.92,4
2.29,1.42,-10.43,-2.45,1.66,-0.16,22.92,4
3.96,4.1,-9.94,-2.6,1.37,-0.76,22.93,4
4.19,6.87,-7.52,-2.84,0.88,-1.05,22.92,4
4.47,8.93,-4.6,-3.59,0.83,-0.95,22.92,4
3.8,9.36,-0.56,-3.63,0.88,-0.55,22.92,4
2.84,8.96,3.14,-2.52,0.45,-0.7,22.92,4
1.61,7.41,5.44,-2.59,0.19,-0.53,22.92,4
1.06,4.12,7.03,-2.93,-0.09,-0.73,22.91,4
0.3,1.98,8.83,-2.01,0.23,-0.69,22.91,4
0.26,-0.82,8.57,-2.59,0.09,-0.5,22.91,4
-0.27,-3.25,7.36,-1.26,-0.1,-0.19,22.91,4
-1.65,-3.67,6.28,1.63,-0.36,0.02,22.92,4
1.2,1.12,7.8,4.51,-0.97,0.59,22.92,4
1.12,7.86,7.23,4.48,-0.82,0.27,22.92,4
2.42,9.94,3.3,4.13,-1.03,-0.38,22.92,4
3.25,9.7,-1.17,4.48,-0.92,-0.49,22.92,4
2.28,8.96,-6.04,3.84,-0.6,-0.34,22.92,4
1.3,5.89,-8.68,3.16,-0.72,-0.24,22.93,4
-0.51,2.37,-9.91,1.71,-0.4,-0.17,22.93,4
-1.46,-0.3,-11.38,1.47,-0.6,-0.14,22.93,4
-1.27,-1.7,-9.76,1.92,-0.37,0.08,22.93,4
-1.57,-3.15,-10.09,1.23,-0.38,0.26,22.94,4
-1.03,-4.98,-8.88,2.08,-0.12,0.06,22.94,4
-1.95,-6.62,-7.75,3.58,0.25,-0.34,22.93,4
-1.0,-8.23,-2.47,3.7,0.17,-0.43,22.94,4
-0.54,-9.55,0.94,2.77,0.05,-0.18,22.92,4
-0.71,-8.91,3.34,2.85,0.02,0.05,22.94,4
-1.06,-6.76,5.79,2.52,-0.01,0.02,22.93,4
-1.46,-5.22,7.08,1.92,-0.01,0.29,22.94,4
-1.47,-2.98,8.1,2.57,-0.23,0.53,22.94,4
-1.59,0.03,9.59,1.62,-0.22,0.44,22.94,4
-0.86,1.22,9.17,0.97,-0.32,0.23,22.94,4
-0.21,2.61,9.12,0.14,-0.08,0.13,22.94,4
-0.92,0.24,9.7,-2.0,0.08,0.77,22.94,4
-0.97,-1.5,9.12,-2.62,0.12,0.85,22.95,4
-0.91,-4.32,8.09,-3.31,0.06,0.68,22.95,4
-2.01,-6.18,6.07,-3.57,0.4,0.99,22.94,4
-3.25,-9.05,1.47,-2.77,0.24,0.43,22.94,4
-3.48,-9.29,0.41,-1.59,0.07,-0.07,22.94,4
-2.94,-9.4,-0.17,-0.76,-0.05,-0.05,22.95,4
-2.16,-9.3,-1.74,-1.0,0.17,-0.31,22.96,4
-2.61,-8.76,-3.11,-1.43,0.57,-0.05,22.94,4
-2.59,-9.33,-5.76,-0.37,0.09,0.39,22.94,4
-3.73,-8.19,-5.03,-0.78,0.38,0.35,22.94,4
-2.61,-6.76,-6.97,-2.09,0.94,-0.02,22.95,4
-1.55,-4.87,-8.39,-2.85,0.7,0.09,22.94,4
0.09,-0.84,-11.08,-3.55,1.06,-0.31,22.94,4
0.49,2.11,-9.81,-2.62,0.82,-0.12,22.95,4
1.65,5.28,-8.66,-3.03,1.07,0.14,22.94,4
2.07,7.1,-7.12,-2.17,0.98,-0.12,22.94,4
2.69,8.79,-4.49,-2.61,1.12,-0.21,22.95,4
3.11,9.89,-1.43,-2.61,1.32,-0.28,22.95,4
2.22,9.59,1.61,-3.04,0.18,-1.24,22.94,4
0.31,8.35,4.78,-2.58,0.06,-1.0,22.94,4
-0.91,7.78,5.39,-1.01,-0.51,-0.85,22.94,4
-0.13,6.01,6.65,-1.4,-0.35,-0.69,22.94,4
-0.07,4.58,8.23,-1.42,-0.06,-0.45,22.94,4
0.0,2.78,8.82,-1.68,0.15,-0.31,22.94,4
-0.55,1.04,9.32,-1.94,-0.02,-0.25,22.95,4
-0.56,-1.14,8.58,-1.07,0.21,-0.13,22.94,4
-1.05,-1.57,8.75,-0.24,0.11,0.0,22.95,4
-0.25,-1.53,8.53,1.28,-0.56,0.43,22.95,4
0.05,1.63,7.98,3.37,-1.02,0.88,22.95,4
1.37,5.79,7.07,4.42,-0.8,0.65,22.94,4
2.13,9.55,2.96,3.9,-0.65,0.12,22.95,4
1.91,10.43,-0.05,3.62,-0.95,-0.02,22.94,4
2.62,9.83,-4.53,4.17,-1.25,-0.35,22.95,4
2.47,7.39,-8.52,4.34,-0.88,-0.21,22.95,4
0.76,2.67,-9.87,3.7,-0.68,0.09,22.95,4
-0.2,-0.32,-10.89,1.58,-0.64,-0.02,22.94,4
-0.46,-2.0,-10.38,1.66,-0.55,0.25,22.95,4
-1.44,-3.64,-9.15,1.58,-0.4,0.36,22.96,4
-2.28,-5.06,-7.76,2.94,-0.09,-0.4,22.94,4
-2.25,-6.53,-6.48,4.44,0.03,-0.19,22.97,4
-1.24,-9.15,-1.0,3.43,-0.08,-0.44,22.96,4
-0.42,-8.84,2.54,3.55,-0.09,-0.07,22.96,4
-1.01,-7.33,5.4,2.87,0.11,0.18,22.96,4
-1.94,-4.66,7.09,2.55,-0.09,0.19,22.97,4
-1.67,-2.54,8.2,2.15,-0.28,0.4,22.96,4
-1.29,0.34,9.4,2.28,-0.3,0.49,22.97,4
-1.24,2.14,9.26,1.36,-0.33,0.37,22.96,4
-1.05,2.83,9.86,-0.56,-0.13,0.07,22.97,4
-0.89,0.7,9.48,-2.46,0.19,0.31,22.98,4
-1.04,-1.67,8.68,-2.91,-0.11,0.22,22.96,4
-1.08,-4.21,7.51,-3.44,-0.36,0.34,22.96,4
-2.15,-7.72,3.29,-3.3,-0.09,0.2,22.96,4
-2.63,-9.39,0.2,-2.32,-0.03,0.44,22.97,4
-2.81,-9.01,-1.64,-0.8,-0.08,-0.02,22.96,4
-1.99,-8.97,-1.7,-1.88,0.27,-0.05,22.97,4
-2.68,-8.21,-0.64,-1.06,0.29,-0.03,22.98,4
-2.54,-9.07,-5.15,-1.39,0.34,0.12,22.97,4
-3.46,-8.2,-5.42,-0.36,0.59,0.32,22.97,4
-2.69,-6.67,-7.27,-1.54,1.36,0.37,22.97,4
-0.91,-4.41,-8.82,-2.17,1.63,-0.36,22.97,4
0.8,-2.67,-10.52,-2.24,1.29,-0.31,22.98,4
2.45,-0.1,-11.15,-2.2,0.83,-0.69,22.98,4
2.51,2.72,-10.1,-2.41,0.7,-0.48,22.97,4
3.15,5.59,-8.29,-3.18,0.75,-0.24,22.97,4
3.52,7.98,-6.57,-2.6,0.62,-0.15,22.97,4
3.18,9.13,-3.26,-3.34,0.76,-0.23,22.97,4
2.21,10.3,1.52,-4.61,0.46,-0.83,22.97,4
1.32,8.61,4.67,-2.91,0.38,-0.6,22.98,4
0.21,5.1,6.51,-3.37,0.2,-0.8,22.97,4
0.06,2.85,8.49,-1.84,0.15,-0.57,22.98,4
0.06,-0.09,8.79,-2.22,0.21,-0.79,22.98,4
-0.06,-1.85,9.03,-1.72,0.36,-0.48,22.97,4
-0.96,-3.14,7.85,-0.34,0.11,-0.06,22.98,4
-0.55,-1.54,9.04,1.66,-0.91,0.63,22.98,4
-0.23,1.09,8.97,2.72,-0.64,0.47,22.98,4
0.71,4.12,8.35,2.99,-0.71,0.21,22.98,4
2.15,6.56,6.47,3.6,-0.6,-0.09,22.97,4
3.34,8.62,3.44,3.31,-0.44,0.03,22.96,4
1.43,11.09,-0.55,3.31,-0.27,0.19,22.97,4
1.41,9.99,-4.3,3.45,-0.43,0.0,22.98,4
1.59,7.86,-7.41,3.48,-0.75,-0.44,22.98,4
1.18,4.72,-8.84,2.54,-0.62,-0.3,22.97,4
0.37,2.38,-11.03,1.96,-0.56,-0.12,22.98,4
0.01,-0.07,-10.78,2.65,-0.53,0.04,22.97,4
-1.04,-2.83,-9.89,1.49,-0.34,0.33,22.98,4
-1.9,-3.7,-9.26,1.27,-0.24,-0.2,22.99,4
-2.0,-5.61,-9.23,2.42,0.04,0.16,23.0,4
-1.41,-7.12,-5.49,3.02,0.17,-0.33,23.0,4
-0.87,-8.6,-3.42,3.37,-0.02,-0.32,22.99,4
-0.31,-9.82,0.91,2.74,-0.16,-0.06,22.99,4
-0.25,-8.84,3.37,2.45,0.09,0.07,22.99,4
-0.53,-7.04,5.73,2.76,0.13,0.15,22.99,4
-0.7,-4.38,7.8,2.67,0.05,0.07,23.0,4
-1.63,-1.4,8.79,2.71,0.1,0.29,22.99,4
-1.33,0.44,9.17,1.36,-0.15,0.27,23.0,4
-0.49,2.71,9.32,0.9,-0.44,-0.11,22.99,4
-0.75,1.41,9.74,-0.93,-0.23,0.08,22.99,4
0.42,0.24,9.49,-2.34,-0.06,0.83,23.0,4
0.09,-2.62,8.7,-2.81,-0.39,0.93,23.0,4
-1.38,-6.25,7.0,-2.8,-0.19,0.82,23.0,4
-1.44,-7.41,5.58,-2.41,-0.26,0.62,22.99,4
-1.2,-8.87,3.66,-2.19,-0.2,0.53,22.99,4
-1.94,-9.79,0.81,-1.63,0.09,0.65,23.0,4
-2.57,-9.8,-0.16,-1.04,0.22,0.19,23.0,4
-2.0,-9.34,-0.07,-1.18,0.4,0.07,22.99,4
-1.61,-9.86,-1.55,-1.32,0.24,0.14,22.99,4
-2.55,-9.69,-4.21,-0.62,0.78,0.45,22.99,4
-1.64,-7.07,-4.59,-1.13,1.03,0.05,23.0,4
-1.67,-7.02,-6.31,-1.98,0.93,-0.05,23.0,4
0.03,-4.97,-8.53,-2.79,1.28,-0.45,23.01,4
0.84,-2.46,-10.55,-2.63,0.5,-0.61,23.0,4
1.69,-0.19,-10.41,-1.93,0.56,-0.45,23.01,4
1.92,2.11,-10.03,-2.32,0.8,-0.25,23.0,4
2.46,4.5,-9.14,-2.28,0.7,-0.16,23.0,4
3.96,6.75,-6.92,-2.75,0.94,-0.1,23.0,4
3.8,8.45,-3.89,-3.36,0.5,-0.69,23.0,4
1.44,10.14,-0.64,-3.77,-0.14,-1.31,23.0,4
1.98,8.91,3.75,-3.32,0.34,-1.01,23.0,4
1.07,7.0,6.6,-2.78,0.47,-0.72,23.01,4
0.23,4.73,8.06,-2.37,0.24,-0.63,22.99,4
-0.46,3.0,9.16,-1.36,0.22,-0.62,22.99,4
-0.33,-0.01,8.74,-2.3,0.22,-0.52,22.99,4
-1.73,-1.7,8.51,-1.63,0.2,-0.54,22.99,4
-0.97,-3.11,8.17,0.07,-0.17,0.03,23.0,4
-0.15,-2.77,8.03,1.67,-1.03,0.83,23.0,4
1.11,1.08,8.79,2.85,-0.71,0.68,23.0,4
2.61,5.41,8.95,2.84,-0.51,-0.06,22.99,4
1.29,8.19,6.23,3.0,-0.94,0.14,23.0,4
2.52,9.74,2.64,3.38,-0.67,-0.33,23.0,4
1.56,10.38,-1.31,4.56,-0.76,-0.26,23.0,4
1.08,8.64,-6.65,5.01,-1.07,-0.22,23.0,4
0.82,5.06,-9.25,3.53,-0.67,-0.27,23.01,4
0.38,1.08,-10.64,5.07,-0.4,0.13,23.02,4
-0.9,-3.17,-9.95,1.4,-0.8,0.01,23.02,4
-0.96,-4.48,-9.29,1.39,-0.2,-0.17,23.01,4
-1.36,-6.34,-8.24,1.78,-0.15,0.44,23.03,4
-1.49,-7.18,-6.7,2.2,-0.24,0.33,23.01,4
-1.4,-8.47,-5.24,3.3,0.06,-0.03,23.02,4
-1.56,-9.31,-1.19,3.08,-0.03,-0.27,23.03,4
-1.25,-8.87,1.67,2.55,0.11,-0.35,23.03,4
-1.31,-7.58,3.72,2.93,-0.0,-0.3,23.03,4
-0.37,-5.63,6.54,3.04,-0.14,-0.0,23.04,4
-0.69,-3.57,8.27,2.07,-0.12,0.33,23.02,4
-0.61,-1.22,8.93,1.94,-0.35,0.45,23.03,4
0.03,1.52,9.32,1.45,-0.04,0.26,23.03,4
-0.67,1.6,9.66,-0.12,0.06,-0.13,23.02,4
-0.25,0.4,9.43,-1.29,0.32,0.51,23.03,4
-1.18,-0.71,8.78,-2.24,0.13,0.88,23.02,4
-0.73,-3.23,8.06,-2.74,-0.21,0.8,23.02,4
-0.89,-5.93,6.38,-2.53,-0.48,0.49,23.03,4
-1.07,-7.81,4.86,-1.9,-0.27,0.24,23.03,4
-1.42,-8.23,3.28,-1.64,-0.14,0.2,23.02,4
-2.04,-10.06,0.76,-0.68,-0.28,-0.06,23.02,4
-1.16,-9.57,2.17,-0.54,-0.19,-0.17,23.03,4
-1.39,-9.57,0.97,-1.41,0.12,0.03,23.03,4
-1.12,-10.58,-0.96,-0.79,0.77,0.75,23.04,4
-2.39,-8.59,-2.35,-1.17,1.65,0.58,23.03,4
-2.7,-8.56,-5.12,-1.82,1.58,0.04,23.03,4
-0.0,-7.15,-7.05,-2.13,1.31,-0.74,23.03,4
1.3,-5.53,-8.87,-2.16,0.64,-0.66,23.02,4
2.74,-2.89,-9.73,-2.42,0.61,-0.39,23.03,4
3.83,-0.19,-9.7,-1.58,0.9,-0.45,23.02,4
4.42,2.08,-10.41,-2.0,1.23,-0.36,23.03,4
5.64,3.97,-8.47,-2.28,1.11,-0.27,23.02,4
6.77,5.56,-5.63,-2.73,1.04,-0.63,23.03,4
6.34,7.82,-3.32,-2.67,1.21,-0.7,23.03,4
5.21,9.09,0.94,-4.95,0.93,-1.07,23.02,4
3.71,8.42,5.53,-3.74,0.78,-0.99,23.03,4
2.59,4.67,7.71,-2.04,0.82,-0.88,23.03,4
1.05,2.45,8.59,-1.74,0.63,-0.81,23.02,4
-0.04,0.76,9.27,-1.79,0.57,-0.95,23.03,4
-0.43,-1.26,8.47,-1.24,0.53,-0.7,23.03,4
-0.73,-1.7,8.97,-0.12,0.27,-0.3,23.03,4
-0.46,-1.72,8.97,0.55,-0.26,-0.15,23.02,4
-0.43,-0.74,8.15,1.67,-0.48,0.15,23.03,4
1.34,1.33,8.05,2.71,-1.09,0.52,23.02,4
2.21,6.39,6.29,4.57,-0.84,0.92,23.03,4
1.98,10.44,3.99,4.16,-1.14,0.04,23.03,4
2.24,10.25,-0.51,3.22,-1.01,-0.32,23.03,4
2.21,9.14,-4.14,3.41,-0.74,-0.22,23.04,4
1.83,6.8,-7.6,2.91,-0.47,-0.17,23.04,4
1.74,4.64,-9.39,3.35,-0.55,-0.17,23.05,4
0.66,1.58,-10.84,1.62,-0.53,-0.21,23.04,4
0.02,-0.82,-10.64,1.88,-0.65,0.07,23.05,4
-0.57,-3.25,-10.06,3.76,-0.38,0.41,23.05,4
-1.3,-6.1,-8.08,1.25,-0.52,0.21,23.04,4
-1.97,-7.61,-7.13,2.32,-0.05,-0.38,23.05,4
-1.22,-8.59,-3.29,3.35,0.04,-0.47,23.05,4
-1.55,-8.53,1.21,3.9,0.03,-0.18,23.06,4
-0.86,-7.69,5.04,2.81,0.01,-0.3,23.05,4
-1.63,-6.37,6.25,2.11,-0.02,-0.07,23.05,4
-0.94,-4.3,7.6,2.21,-0.27,0.37,23.06,4
-0.97,-1.78,9.35,1.99,-0.3,0.29,23.07,4
-0.64,-0.53,9.29,1.36,-0.44,0.14,23.05,4
0.01,0.93,9.73,0.44,-0.18,0.26,23.06,4
-0.94,0.01,9.37,-0.79,-0.01,0.34,23.07,4
-0.34,-0.83,9.24,-2.17,-0.23,0.83,23.06,4
-0.8,-3.89,8.14,-2.59,-0.3,0.67,23.06,4
-0.62,-5.9,7.06,-2.05,-0.31,0.36,23.06,4
-1.05,-8.11,4.54,-1.98,-0.16,-0.18,23.06,4
-0.46,-8.55,3.95,-1.62,0.07,0.09,23.07,4
-1.24,-8.41,2.82,-1.73,0.19,0.87,23.06,4
-1.3,-9.88,0.69,-0.7,0.07,0.17,23.06,4
-1.26,-9.88,0.17,-1.48,0.25,0.27,23.06,4
-1.81,-10.12,-1.99,-1.08,0.33,0.57,23.06,4
-3.23,-9.62,-2.78,-1.03,0.48,0.33,23.06,4
-1.88,-8.52,-4.47,-1.62,0.71,0.32,23.06,4
-2.24,-7.46,-5.95,-2.84,1.03,0.48,23.06,4
0.13,-3.53,-9.54,-2.73,1.56,0.01,23.06,4
1.21,-1.44,-10.78,-2.8,1.91,-0.79,23.07,4
2.02,1.44,-10.15,-1.94,1.34,-0.19,23.07,4
3.72,3.29,-9.36,-2.37,0.97,-0.41,23.07,4
3.29,5.63,-7.46,-2.53,0.97,-0.58,23.07,4
4.29,7.63,-4.12,-2.3,1.14,-0.23,23.05,4
4.67,9.57,-2.0,-2.11,1.22,-0.7,23.05,4
3.42,9.02,1.35,-3.02,0.71,-1.32,23.05,4
2.63,8.84,3.32,-2.68,0.37,-1.22,23.06,4
1.36,6.52,6.2,-2.42,0.22,-1.18,23.06,4
-0.3,4.51,7.77,-1.94,0.06,-0.72,23.06,4
-0.42,2.39,8.83,-1.71,0.13,-0.86,23.05,4
-1.03,0.32,9.41,-1.23,0.39,-0.52,23.06,4
-1.11,-1.29,8.4,-1.21,0.38,-0.25,23.06,4
-1.72,-1.83,8.34,-0.01,-0.1,-0.12,23.06,4
-0.84,-0.5,8.07,2.29,-1.4,0.56,23.06,4
1.16,2.74,7.86,3.35,-0.99,0.45,23.06,4
2.34,8.14,5.91,3.81,-0.73,0.49,23.05,4
2.19,9.67,3.14,3.66,-0.9,0.14,23.05,4
2.18,9.6,-0.86,3.4,-0.78,-0.08,23.05,4
1.5,9.05,-4.92,3.72,-0.73,-0.12,23.06,4
1.64,6.42,-9.15,3.95,-0.7,-0.02,23.07,4
1.26,2.12,-9.09,3.59,-0.72,0.14,23.07,4
0.08,-0.9,-10.79,1.42,-0.43,-0.18,23.07,4
0.11,-2.96,-9.8,1.71,-0.52,-0.22,23.07,4
-0.43,-4.61,-10.13,2.02,-0.09,0.08,23.07,4
-0.74,-5.97,-8.81,1.22,-0.22,0.11,23.07,4
-2.26,-7.61,-7.27,0.97,-0.16,0.42,23.07,4
-2.3,-8.18,-8.24,1.93,-0.02,-0.1,23.06,4
-1.02,-8.59,-4.5,3.85,-0.09,-0.22,23.07,4
-0.03,-8.98,1.31,3.42,-0.13,-0.2,23.08,4
-0.31,-7.02,4.56,3.02,-0.34,0.26,23.07,4
-0.78,-5.58,6.7,2.85,-0.48,0.1,23.08,4
-0.47,-2.31,8.59,2.72,-0.47,-0.27,23.08,4
0.36,-0.88,9.54,1.86,-0.22,-0.05,23.08,4
0.15,1.29,9.15,1.45,-0.35,-0.06,23.07,4
0.63,2.67,9.61,0.35,-0.05,0.01,23.08,4
0.0,1.82,9.91,-1.26,0.22,0.42,23.08,4
0.14,-0.69,8.73,-2.5,0.03,0.81,23.08,4
-1.0,-2.29,8.44,-2.74,-0.19,0.99,23.08,4
-0.65,-5.8,6.48,-2.69,-0.2,0.32,23.07,4
-0.87,-8.33,4.49,-1.6,-0.1,0.19,23.08,4
-1.06,-8.95,4.94,-0.94,0.01,0.19,23.08,4
-1.2,-9.23,2.4,-0.58,0.03,0.03,23.07,4
-1.0,-9.11,2.75,-0.66,0.22,-0.1,23.08,4
-1.57,-8.89,2.09,-1.17,0.48,0.06,23.08,4
-1.68,-9.86,-1.28,-1.02,0.69,0.21,23.09,4
-2.07,-10.0,-1.19,-1.04,0.99,0.33,23.08,4
-0.64,-9.07,-2.63,-1.85,1.35,-0.29,23.08,4
-0.57,-7.69,-6.59,-2.28,1.29,-0.86,23.08,4
1.95,-7.03,-7.54,-1.06,0.81,-0.3,23.08,4
1.86,-6.97,-8.49,-1.02,0.41,-0.4,23.09,4
4.13,-4.38,-8.66,-1.54,0.42,0.04,23.08,4
3.69,-2.3,-9.76,-2.21,0.84,-0.63,23.08,4
4.45,-0.84,-9.16,-2.62,0.55,-0.67,23.08,4
4.45,1.69,-8.95,-1.87,0.85,-0.27,23.09,4
5.9,4.17,-7.82,-2.31,0.95,-0.38,23.07,4
6.72,6.36,-5.3,-1.99,0.59,-0.84,23.08,4
5.46,8.19,-3.44,-2.34,0.74,-1.01,23.07,4
4.56,9.49,-0.42,-2.49,0.67,-1.56,23.08,4
3.33,8.53,3.48,-3.11,0.9,-1.23,23.08,4
1.44,7.08,5.33,-2.17,0.54,-0.77,23.08,4
0.24,6.79,6.27,-1.24,0.4,-0.38,23.07,4
-0.06,5.11,7.8,-1.84,-0.11,-0.68,23.08,4
0.22,4.28,9.28,-1.12,0.09,-0.76,23.09,4
-1.3,1.3,8.12,-0.77,-0.07,-0.27,23.1,4
-0.95,1.46,9.32,-0.22,-0.01,-0.14,23.09,4
-1.38,0.78,9.6,-1.03,0.12,-0.41,23.09,4
-2.12,-0.19,7.43,-0.52,0.02,-0.41,23.09,4
-0.94,0.59,9.64,0.44,-0.21,0.08,23.11,4
-0.53,0.94,8.75,2.05,-0.52,0.2,23.09,4
-0.08,5.21,7.67,3.47,-0.78,0.76,23.09,4
0.14,7.14,4.1,4.1,-0.22,0.46,23.1,4
0.08,10.22,0.73,3.45,-0.47,0.26,23.09,4
0.66,9.05,-2.6,3.47,-0.61,-0.1,23.1,4
0.82,8.66,-7.98,4.41,-0.57,-0.12,23.09,4
0.91,3.45,-10.5,5.73,-0.35,0.32,23.09,4
-0.04,-2.13,-10.34,1.91,-0.53,0.04,23.09,4
0.05,-3.86,-10.17,2.09,-0.42,0.25,23.1,4
-0.49,-6.01,-8.71,2.34,-0.38,0.38,23.1,4
-1.61,-7.45,-7.98,1.0,-0.07,0.3,23.09,4
-1.38,-8.17,-5.98,2.16,0.3,-0.01,23.11,4
-0.26,-9.42,-3.41,2.84,0.58,-0.22,23.1,4
-0.63,-8.76,0.46,3.0,0.24,0.16,23.1,4
-0.36,-8.16,3.6,2.61,-0.05,0.16,23.1,4
-0.71,-7.33,5.26,1.84,-0.03,0.23,23.1,4
-1.02,-5.76,6.83,2.26,0.09,0.44,23.11,4
-1.22,-3.4,8.32,2.6,0.11,0.58,23.12,4
-1.64,-0.65,8.91,1.72,0.07,0.75,23.11,4
-2.06,1.03,9.21,1.16,-0.24,0.48,23.1,4
-1.25,2.62,9.46,0.4,-0.23,0.15,23.12,4
-1.74,1.78,9.62,-0.89,-0.21,0.2,23.11,4
-1.28,0.34,9.04,-3.26,-0.05,0.74,23.1,4
-0.63,-3.26,8.65,-2.96,-0.02,0.47,23.11,4
-1.0,-6.17,6.65,-2.98,-0.24,0.33,23.12,4
-1.39,-7.73,4.02,-2.97,-0.22,0.45,23.11,4
-1.47,-9.21,0.37,-2.49,0.13,0.12,23.11,4
-0.98,-9.65,-1.5,-1.53,-0.01,-0.15,23.11,4
-1.3,-9.7,-3.0,-0.46,-0.24,0.05,23.11,4
-1.02,-9.3,-4.41,-1.52,0.04,0.08,23.12,4
-1.56,-8.77,-7.2,-1.34,0.11,0.19,23.11,4
-1.2,-7.8,-5.8,-0.86,0.43,0.6,23.11,4
-1.77,-6.45,-7.54,-1.71,0.85,0.59,23.11,4
-0.51,-3.52,-9.5,-3.03,1.37,0.5,23.1,4
0.14,-0.74,-10.78,-3.34,1.06,-0.19,23.11,4
1.08,3.03,-9.61,-3.02,1.18,-0.09,23.11,4
2.53,6.31,-7.81,-3.07,1.2,-0.14,23.12,4
3.25,9.19,-3.89,-4.47,0.57,-0.69,23.12,4
2.51,9.96,0.08,-3.7,0.73,-0.51,23.12,4
2.03,8.71,5.41,-5.59,0.15,-0.6,23.11,4
-1.03,4.2,9.06,-4.15,1.0,-0.36,23.1,4
0.08,0.17,9.15,-1.93,0.07,-0.42,23.1,4
0.21,-2.35,8.41,-1.27,0.18,-0.24,23.09,4
-0.08,-2.14,9.06,-0.11,0.03,-0.06,23.12,4
-0.17,-2.62,9.17,0.16,0.0,0.1,23.11,4
0.3,-2.6,7.38,2.1,-0.85,0.75,23.11,4
0.95,3.54,8.41,3.73,-1.16,0.16,23.11,4
3.11,5.89,7.52,3.59,-0.86,0.2,23.11,4
2.87,8.73,4.07,3.63,-0.64,-0.13,23.11,4
1.78,10.71,-0.02,4.47,-1.05,-0.31,23.12,4
2.13,9.24,-4.61,3.82,-0.78,-0.19,23.12,4
1.61,6.84,-8.54,4.94,-0.83,0.04,23.12,4
0.77,1.91,-9.73,3.6,-0.9,-0.19,23.12,4
0.2,-1.16,-11.09,2.17,-0.87,-0.14,23.11,4
-0.62,-3.48,-9.76,2.17,-0.46,-0.13,23.11,4
-1.47,-5.15,-7.25,1.26,-0.17,0.15,23.13,4
-0.74,-6.89,-7.89,1.67,0.3,-0.95,23.12,4
-1.86,-7.86,-6.16,4.01,0.46,-0.31,23.11,4
-1.6,-8.68,-1.43,4.66,0.07,-0.31,23.12,4
-0.84,-7.42,4.6,4.28,-0.28,-0.53,23.12,4
-1.3,-5.42,7.45,2.77,-0.12,-0.06,23.12,4
-0.78,-3.57,7.31,2.76,-0.31,0.23,23.12,4
-0.76,0.46,9.19,2.76,-0.35,0.43,23.12,4
0.0,2.3,9.82,0.04,-0.2,0.04,23.12,4
0.03,0.48,9.59,-1.34,0.17,0.46,23.12,4
-0.44,-0.29,9.48,-1.65,0.15,0.79,23.11,4
-1.37,-3.48,8.34,-3.89,0.37,1.09,23.13,4
-1.75,-6.65,5.81,-3.21,0.12,0.62,23.13,4
-1.91,-8.93,3.0,-2.19,-0.07,0.35,23.12,4
-2.04,-9.24,1.4,-1.84,-0.0,0.15,23.12,4
-2.01,-9.43,-0.72,-1.13,-0.05,0.17,23.13,4
-2.46,-9.22,-1.76,-2.09,0.33,0.08,23.12,4
-2.9,-8.51,-5.5,-1.64,0.25,0.48,23.11,4
-3.12,-8.41,-3.4,-0.43,0.25,0.67,23.12,4
-3.54,-6.89,-6.37,-2.52,1.14,0.52,23.12,4
-2.08,-3.4,-8.35,-2.89,1.27,0.42,23.13,4
-0.28,-0.84,-10.68,-3.14,1.34,0.01,23.13,4
0.98,3.66,-10.54,-3.67,1.29,-0.11,23.13,4
2.51,6.22,-7.82,-3.21,1.45,0.21,23.12,4
3.27,8.68,-5.23,-3.88,1.75,0.13,23.13,4
3.4,10.06,-0.23,-4.47,1.08,-0.46,23.13,4
2.41,8.37,4.87,-5.26,0.6,-0.81,23.12,4
1.03,4.3,8.29,-3.0,0.71,-0.66,23.12,4
0.88,0.71,8.98,-3.27,0.56,-0.55,23.12,4
-0.04,-2.16,8.76,-2.24,0.46,-0.32,23.12,4
-0.4,-4.36,7.04,-0.68,0.02,-0.01,23.12,4
-0.69,-4.15,6.77,1.9,-1.35,0.94,23.12,4
1.6,0.94,8.48,3.86,-1.0,0.25,23.13,4
1.66,6.86,7.94,4.21,-0.86,-0.03,23.13,4
1.95,9.43,4.61,4.26,-1.14,-0.45,23.13,4
2.59,10.23,0.25,3.79,-1.17,-0.61,23.14,4
2.44,9.56,-4.46,4.77,-0.89,-0.34,23.14,4
1.42,6.64,-8.07,4.29,-0.97,-0.2,23.13,4
0.61,2.56,-10.04,3.45,-0.8,-0.3,23.14,4
-0.17,-0.69,-10.21,2.15,-0.54,-0.3,23.13,4
-1.02,-3.07,-10.0,1.86,-0.53,-0.25,23.14,4
-2.03,-4.95,-8.34,1.16,-0.14,0.01,23.15,4
-3.59,-6.33,-9.26,1.19,-0.19,-0.58,23.14,4
-2.76,-7.58,-7.45,3.36,0.5,-0.35,23.14,4
-2.21,-9.11,-2.28,3.87,0.15,-0.25,23.14,4
-1.98,-8.46,3.29,4.09,-0.17,-0.29,23.15,4
-2.0,-6.93,5.33,3.1,-0.23,-0.26,23.14,4
-1.47,-4.22,7.8,2.64,-0.42,-0.08,23.14,4
-0.75,-1.88,8.71,2.15,-0.36,0.28,23.14,4
-0.91,-0.15,9.05,2.06,-0.36,0.41,23.15,4
-0.2,3.36,9.46,1.29,-0.11,-0.09,23.14,4
-0.67,2.18,9.97,-1.08,0.12,0.23,23.15,4
-0.42,0.3,9.59,-2.94,0.46,0.93,23.14,4
-1.28,-3.56,8.21,-3.08,-0.02,0.87,23.16,4
-2.06,-6.0,6.13,-3.49,0.12,0.65,23.15,4
-2.1,-8.49,2.78,-2.93,-0.13,0.47,23.15,4
-2.59,-8.88,1.01,-1.85,-0.19,0.45,23.15,4
-2.69,-9.79,-0.98,-0.55,-0.31,0.35,23.15,4
-3.09,-9.17,-0.58,-1.06,-0.02,0.47,23.14,4
-2.76,-9.24,-1.76,-1.18,0.19,0.01,23.15,4
-2.72,-8.18,-4.65,-2.6,0.42,0.27,23.14,4
-1.52,-7.63,-5.05,-0.55,-0.06,-0.12,23.14,4
-3.1,-5.83,-7.3,-2.26,1.41,0.59,23.15,4
-0.62,-2.0,-9.15,-3.1,2.2,0.99,23.15,4
2.01,0.75,-10.64,-2.68,2.83,0.8,23.16,4
4.68,3.09,-9.27,-2.0,2.15,-0.24,23.17,4
6.33,5.24,-7.35,-2.95,1.67,-0.31,23.16,4
6.8,7.57,-3.99,-2.58,0.81,-0.8,23.16,4
6.11,8.98,-0.69,-3.08,1.07,-1.18,23.16,4
3.97,9.49,2.35,-2.66,1.03,-0.95,23.16,4
1.82,7.51,5.01,-4.27,0.54,-1.11,23.16,4
0.32,4.45,7.76,-2.35,0.45,-1.02,23.15,4
0.12,1.96,9.22,-2.53,0.36,-1.09,23.15,4
-0.8,-1.44,8.35,-2.57,0.3,-0.82,23.16,4
-0.89,-3.55,7.92,-0.83,0.4,-0.51,23.16,4
-0.94,-3.21,8.51,0.27,-0.31,0.06,23.15,4
-0.6,-3.12,7.88,1.85,-1.11,0.36,23.16,4
1.07,1.53,9.42,3.34,-0.78,-0.23,23.15,4
2.3,4.21,7.7,3.73,-0.83,0.49,23.14,4
2.61,8.1,5.06,4.18,-0.7,0.09,23.16,4
2.58,11.01,1.86,4.29,-0.93,-0.14,23.16,4
1.57,10.0,-2.06,3.05,-0.33,-0.15,23.17,4
1.16,8.62,-6.38,3.82,-0.32,-0.02,23.16,4
0.82,5.09,-8.75,4.34,-0.66,-0.04,23.17,4
0.14,0.72,-9.46,3.17,-0.67,-0.01,23.16,4
-0.33,-2.28,-10.56,1.58,-0.43,-0.17,23.17,4
-0.21,-3.71,-9.85,1.6,-0.35,0.02,23.17,4
-1.63,-5.19,-8.56,1.3,-0.34,0.26,23.18,4
-2.38,-6.72,-10.14,0.39,-1.05,0.84,23.17,4
-1.63,-7.71,-8.07,2.37,0.16,-0.01,23.17,4
-1.04,-8.47,-3.58,3.87,-0.08,0.07,23.17,4
-1.38,-8.53,2.26,3.91,-0.32,0.0,23.17,4
-1.26,-7.76,4.71,3.08,-0.19,-0.03,23.16,4
-1.34,-5.07,7.18,2.95,-0.2,-0.15,23.17,4
-0.7,-2.5,8.83,2.52,-0.3,-0.03,23.17,4
-1.2,-0.76,8.86,2.2,-0.56,0.48,23.17,4
0.83,2.83,9.64,1.57,-0.54,0.33,23.16,4
-0.34,2.33,10.06,-1.07,-0.04,0.24,23.15,4
0.61,0.21,9.45,-2.52,-0.1,0.58,23.16,4
1.07,-2.4,8.3,-2.7,0.11,0.69,23.16,4
-0.93,-4.64,7.99,-2.42,0.22,0.75,23.17,4
-1.57,-6.51,5.31,-2.89,-0.02,0.38,23.16,4
-1.49,-9.24,2.41,-2.36,-0.04,0.19,23.17,4
-2.01,-9.89,0.08,-1.34,-0.01,0.19,23.18,4
-1.34,-9.28,-0.09,-0.79,0.07,-0.02,23.17,4
-2.09,-9.18,0.7,-1.17,0.28,0.1,23.19,4
-1.84,-9.99,-3.19,-1.06,0.35,0.49,23.18,4
-0.36,-9.06,-2.27,-1.21,0.86,0.25,23.17,4
-2.2,-8.1,-5.25,-2.34,1.4,0.43,23.17,4
-1.27,-5.52,-8.74,-3.41,1.93,-0.16,23.16,4
1.81,-1.44,-9.96,-3.09,1.5,0.06,23.18,4
2.7,1.5,-10.54,-2.91,0.94,-0.18,23.18,4
3.4,3.55,-9.26,-2.8,1.24,-0.14,23.18,4
3.92,7.02,-7.21,-3.0,1.14,-0.59,23.17,4
3.2,8.67,-3.59,-3.15,0.81,-0.52,23.17,4
4.3,9.65,1.0,-3.74,0.91,-0.66,23.19,4
1.79,8.97,4.59,-4.64,1.07,-1.1,23.18,4
0.05,4.78,7.62,-3.26,0.73,-0.86,23.17,4
-0.51,1.63,9.01,-2.58,0.23,-0.81,23.17,4
-1.24,-1.18,8.64,-1.95,0.33,-0.91,23.17,4
0.03,-3.88,7.62,-1.29,0.23,-0.61,23.17,4
-0.87,-3.54,8.41,0.5,-0.38,0.1,23.17,4
0.11,-2.11,6.93,3.53,-1.33,1.14,23.17,4
1.82,5.97,8.7,4.97,-1.17,0.64,23.18,4
1.33,9.99,5.85,4.48,-1.24,-0.01,23.18,4
1.49,9.74,1.15,4.02,-1.4,-0.4,23.17,4
1.09,9.25,-4.31,4.59,-1.04,-0.44,23.19,4
0.89,6.31,-8.32,4.24,-0.81,-0.24,23.19,4
0.05,2.17,-10.15,3.51,-0.83,-0.3,23.17,4
-0.78,-1.2,-10.87,1.97,-0.79,-0.29,23.19,4
-1.42,-3.56,-9.31,3.28,-0.3,-0.28,23.18,4
-1.8,-6.42,-7.44,1.27,-0.12,0.1,23.18,4
-1.64,-7.26,-8.51,0.72,-0.54,-0.41,23.19,4
-2.18,-8.0,-7.49,2.2,0.23,-0.27,23.18,4
-1.44,-8.92,-3.17,2.88,-0.02,-0.18,23.19,4
-1.42,-9.31,0.65,3.84,-0.06,-0.09,23.2,4
-1.4,-7.58,4.52,3.51,0.1,-0.29,23.2,4
-1.8,-5.28,6.85,2.82,0.03,0.32,23.19,4
-1.27,-2.17,8.93,2.86,-0.37,0.07,23.19,4
-0.03,-0.46,9.61,1.67,-0.19,0.08,23.2,4
-1.22,1.89,8.5,1.64,0.09,0.14,23.2,4
-0.76,3.18,9.75,0.59,-0.43,-0.0,23.21,4
0.46,1.73,9.21,-1.93,0.08,0.22,23.21,4
-0.42,0.3,9.18,-1.89,0.17,0.84,23.21,4
-1.08,-1.72,9.27,-2.09,0.09,0.85,23.2,4
-1.79,-4.04,7.99,-2.45,-0.06,0.62,23.2,4
-2.04,-6.43,5.81,-2.69,-0.19,0.21,23.21,4
-1.52,-8.05,4.25,-1.78,-0.29,0.06,23.19,4
-1.48,-9.13,2.6,-1.05,-0.08,0.22,23.21,4
-1.84,-8.9,2.03,-0.66,0.01,-0.15,23.2,4
-1.73,-9.4,1.2,-0.95,0.29,-0.17,23.19,4
-1.35,-9.98,-0.94,-0.82,0.14,0.32,23.21,4
-2.26,-10.73,-0.56,-0.91,-0.07,0.13,23.2,4
-0.63,-9.33,-1.37,-1.84,0.42,0.44,23.21,4
-1.85,-8.0,-3.81,-2.08,0.87,0.37,23.2,4
-2.04,-6.45,-6.59,-2.68,1.24,0.05,23.22,4
-0.91,-4.66,-9.15,-2.45,0.97,-0.13,23.22,4
0.12,-2.41,-10.51,-2.88,1.07,-0.07,23.21,4
1.82,1.08,-10.22,-2.87,1.03,-0.15,23.21,4
1.44,4.25,-10.28,-3.06,0.61,-0.39,23.22,4
1.87,6.68,-7.46,-2.93,0.3,-0.21,23.22,4
2.77,9.14,-5.05,-3.24,0.81,0.25,23.2,4
3.52,9.91,-0.56,-3.36,0.75,-0.39,23.21,4
2.22,8.61,3.71,-4.08,0.96,-0.19,23.2,4
1.37,6.74,6.77,-4.05,0.01,-0.83,23.22,4
0.87,2.61,8.36,-2.28,0.02,-0.6,23.21,4
0.75,0.84,9.85,-2.74,0.07,-0.69,23.21,4
0.32,-2.09,8.97,-1.22,0.58,-0.64,23.2,4
-0.33,-2.98,8.44,-0.81,0.51,-0.3,23.21,4
-1.15,-3.38,7.2,1.22,-0.16,0.08,23.21,4
0.64,-1.52,8.55,2.36,-0.59,0.06,23.21,4
1.88,2.33,7.9,3.34,-0.54,0.55,23.21,4
1.09,7.99,7.21,3.54,-0.61,0.02,23.22,4
1.99,8.99,3.61,3.88,-0.69,-0.4,23.21,4
2.38,10.39,-0.08,3.55,-0.53,-0.08,23.22,4
1.69,9.38,-4.16,3.39,-0.47,-0.18,23.22,4
1.61,7.48,-8.29,4.39,-0.35,-0.05,23.21,4
0.69,2.9,-10.1,4.23,-0.4,0.17,23.2,4
0.05,-1.18,-10.85,1.84,-0.43,-0.18,23.21,4
-0.8,-3.9,-9.45,2.58,-0.06,0.21,23.22,4
-0.68,-5.41,-8.83,0.94,-0.09,0.35,23.22,4
0.67,-5.88,-7.07,0.4,0.99,-1.43,23.22,4
-0.13,-7.21,-7.6,3.14,0.49,0.04,23.22,4
0.61,-8.61,-2.67,3.34,0.39,0.34,23.22,4
-0.98,-9.07,0.77,3.24,0.06,0.15,23.22,4
-0.9,-8.23,3.98,3.46,-0.22,0.5,23.22,4
-0.85,-6.64,6.63,2.87,0.03,0.52,23.22,4
-1.7,-3.94,8.09,2.38,0.05,0.6,23.23,4
-1.63,-2.02,8.84,1.59,0.08,0.6,23.22,4
-2.54,-0.26,8.81,1.95,-0.09,0.57,23.22,4
-1.62,2.49,9.02,1.35,-0.37,0.24,23.22,4
-1.58,3.59,8.68,0.22,-0.2,0.09,23.22,4
-0.91,2.14,9.91,-2.7,0.28,0.85,23.22,4
-1.18,-0.74,9.02,-4.08,-0.06,0.89,23.22,4
-1.34,-6.31,6.45,-3.96,-0.14,0.48,23.22,4
-1.16,-8.31,3.67,-2.45,-0.42,0.27,23.22,4
-0.84,-9.13,1.99,-1.44,-0.27,-0.0,23.22,4
-1.12,-9.93,0.42,-0.29,-0.25,-0.04,23.21,4
-1.51,-9.06,-0.03,-1.16,0.18,0.08,23.22,4
-1.61,-10.16,-1.06,-1.47,0.35,-0.05,23.22,4
-1.4,-9.53,-2.78,-1.21,0.41,0.19,23.23,4
-1.35,-8.27,-3.56,-0.71,0.52,0.72,23.22,4
-2.14,-7.52,-4.45,-1.11,0.4,0.95,23.22,4
-1.34,-5.54,-7.48,-3.0,1.46,1.31,23.23,4
-0.77,-3.37,-9.79,-3.14,2.22,0.56,23.23,4
1.56,-0.6,-10.69,-2.87,2.7,0.63,23.24,4
4.43,1.72,-9.0,-2.6,2.81,0.23,23.23,4
6.25,4.29,-6.62,-2.69,2.15,-0.71,23.23,4
5.27,7.11,-3.32,-3.49,1.77,-1.27,23.22,4
4.51,9.16,1.63,-4.47,1.41,-1.41,23.22,4
3.62,6.49,6.14,-3.74,1.22,-1.31,23.23,4
1.96,3.74,8.16,-2.6,1.44,-1.22,23.23,4
-1.1,2.51,8.54,-1.63,0.67,-1.12,23.23,4
-1.59,0.35,8.3,-2.0,0.37,-1.02,23.23,4
-0.83,-2.39,8.42,-0.66,0.24,-0.61,23.21,4
-1.88,-1.68,8.37,0.84,0.03,0.03,23.23,4
-1.85,1.02,6.75,4.1,-0.6,0.57,23.22,4
-0.89,8.66,6.42,5.16,-0.67,0.45,23.23,4
-0.47,10.17,3.01,4.22,-0.97,0.01,23.23,4
0.35,9.77,-1.34,3.31,-0.54,0.01,23.23,4
1.74,9.36,-3.86,2.43,-0.17,0.09,23.24,4
1.89,8.53,-5.94,1.94,0.39,0.47,23.24,4
1.03,6.81,-7.35,1.87,0.08,0.05,23.24,4
1.05,3.84,-10.89,4.54,-0.05,0.08,23.24,4
0.77,-1.25,-10.08,2.27,-0.14,0.06,23.24,4
1.78,-3.8,-10.34,2.62,0.03,0.51,23.24,4
0.39,-6.27,-7.64,1.83,-0.13,0.49,23.24,4
-0.03,-6.75,-6.66,1.34,0.27,0.72,23.25,4
0.42,-9.31,-5.72,2.98,0.96,0.35,23.25,4
-0.16,-9.12,-1.19,3.07,0.58,0.79,23.25,4
-1.08,-8.17,2.4,2.48,0.14,0.61,23.24,4
-1.7,-6.25,5.79,3.78,-0.53,1.18,23.25,4
-1.21,-3.6,9.21,2.75,-0.16,0.71,23.25,4
-1.4,-1.93,9.17,1.97,0.12,0.74,23.25,4
-1.82,0.31,9.63,1.48,0.11,0.78,23.25,4
-2.44,1.96,8.86,0.74,-0.01,0.47,23.24,4
-2.46,2.33,8.63,-0.01,0.0,0.19,23.25,4
-1.41,2.6,9.56,-1.4,-0.15,0.18,23.24,4
-0.38,-0.22,9.47,-2.61,0.07,0.61,23.25,4
-1.82,-2.89,8.18,-2.57,-0.2,0.8,23.23,4
-1.69,-5.34,7.21,-3.31,-0.54,1.01,23.25,4
-1.96,-8.01,2.44,-3.51,-0.33,0.66,23.26,4
-2.18,-9.3,-0.16,-3.04,0.14,0.68,23.25,4
-2.89,-7.66,-3.22,-3.42,0.68,0.25,23.26,4
-1.91,-8.54,-5.12,-1.26,0.78,0.14,23.25,4
-2.83,-6.77,-6.65,-1.48,0.7,0.2,23.24,4
-1.36,-5.95,-7.61,-1.04,0.23,0.29,23.26,4
-2.44,-5.32,-9.13,-1.52,0.57,0.9,23.25,4
-1.88,-2.8,-8.8,-2.1,0.65,0.51,23.25,4
0.06,0.99,-10.06,-2.97,1.83,0.6,23.25,4
1.88,5.35,-10.34,-4.07,2.11,0.6,23.25,4
4.19,7.73,-6.28,-3.58,1.64,-0.32,23.25,4
4.06,9.92,-1.84,-4.02,1.13,-0.5,23.25,4
3.12,9.84,3.23,-4.87,1.27,-1.5,23.25,4
-0.6,6.56,6.89,-4.39,1.65,-1.4,23.25,4
-0.59,2.1,8.54,-2.72,0.58,-1.0,23.26,4
-0.68,-1.44,8.74,-3.69,0.18,-0.97,23.24,4
-1.14,-4.69,6.7,-1.08,-0.0,-0.42,23.24,4
-1.06,-4.16,7.61,0.79,-0.29,-0.02,23.24,4
0.5,-2.49,7.36,3.25,-1.46,0.77,23.24,4
2.94,2.49,7.0,4.85,-0.93,0.6,23.24,4
3.65,9.04,4.84,5.15,-0.72,0.89,23.26,4
2.63,11.12,0.72,4.38,-0.8,0.22,23.24,4
2.81,9.52,-4.22,4.7,-0.68,0.14,23.25,4
2.19,6.43,-8.34,5.23,-0.87,0.25,23.24,4
1.63,1.0,-10.21,4.44,-1.07,-0.14,23.26,4
1.13,-3.41,-10.87,2.47,-0.78,-0.3,23.26,4
0.42,-4.88,-8.4,2.76,0.01,0.63,23.27,4
-0.57,-7.21,-6.74,1.07,-0.27,0.82,23.26,4
-0.22,-7.62,-9.52,0.0,-0.29,0.01,23.27,4
-0.05,-8.92,-5.81,2.05,0.51,0.18,23.27,4
-0.25,-9.47,-3.69,3.19,0.25,0.14,23.27,4
-0.69,-9.35,0.12,2.52,0.13,0.0,23.26,4
-0.64,-8.09,3.44,3.76,0.03,0.62,23.26,4
-1.59,-3.69,8.62,3.59,0.01,0.63,23.27,4
-1.73,-0.49,9.02,2.41,0.03,1.12,23.26,4
-2.28,2.68,9.07,1.91,-0.85,0.54,23.27,4
-0.62,4.27,9.37,0.79,-0.56,0.13,23.26,4
-1.26,3.23,10.03,-2.03,0.26,0.13,23.27,4
-0.38,0.13,9.27,-4.21,0.02,0.03,23.27,4
-1.79,-4.37,6.81,-4.21,0.12,0.59,23.28,4
-1.9,-6.71,4.57,-4.52,0.0,0.67,23.28,4
-3.09,-8.91,-1.32,-4.23,0.23,0.3,23.28,4
-3.14,-7.96,-5.18,-2.37,0.42,-0.07,23.28,4
-2.57,-7.7,-5.4,-0.36,0.14,-0.28,23.28,4
-2.66,-8.15,-7.86,-1.55,0.41,-0.25,23.28,4
-2.89,-5.01,-8.3,-1.9,0.48,0.24,23.28,4
-2.26,-4.53,-10.56,-2.19,0.4,0.76,23.28,4
-0.59,-2.91,-9.64,-0.63,1.01,0.82,23.28,4
-0.24,0.13,-10.29,-3.86,1.98,1.45,23.28,4
2.57,4.3,-8.85,-4.98,2.3,-0.3,23.27,4
3.49,8.51,-5.05,-4.3,1.86,-0.84,23.28,4
3.81,10.72,0.21,-3.76,1.57,-0.69,23.28,4
1.93,7.53,5.26,-6.04,1.49,-1.37,23.28,4
0.16,4.24,8.72,-3.6,0.71,-1.24,23.28,4
-0.27,-1.45,7.87,-3.4,0.5,-0.84,23.27,4
-0.79,-3.78,7.85,-1.32,0.43,-0.46,23.28,4
-1.39,-3.72,7.4,0.63,-0.32,0.26,23.28,4
-0.25,-0.35,6.85,4.35,-1.96,1.17,23.29,4
3.42,6.46,7.85,4.93,-1.76,0.38,23.27,4
4.48,8.8,3.73,4.87,-1.22,0.09,23.28,4
3.73,11.55,-2.93,5.87,-0.97,0.1,23.28,4
2.52,7.58,-6.83,4.44,-0.89,-0.08,23.29,4
1.78,3.29,-9.98,4.16,-1.01,-0.2,23.29,4
0.65,-0.39,-10.8,2.37,-1.14,-0.19,23.29,4
0.13,-3.63,-9.91,2.54,-0.56,-0.02,23.29,4
-0.85,-5.8,-6.65,2.66,-0.04,0.45,23.29,4
-1.39,-7.26,-7.81,1.47,-0.59,0.59,23.29,4
-2.55,-8.71,-6.37,2.35,0.06,-0.25,23.3,4
-1.05,-9.0,-2.62,3.64,0.28,-0.43,23.3,4
-1.96,-7.72,2.13,4.57,-0.03,-0.41,23.29,4
-0.46,-6.26,7.39,3.43,0.02,-0.06,23.29,4
-1.02,-3.82,7.56,2.42,0.29,0.33,23.3,4
-1.5,-0.56,8.85,3.05,-0.05,0.58,23.3,4
-0.86,2.68,9.14,1.87,-0.46,0.35,23.3,4
-0.7,2.91,9.97,0.14,-0.14,0.32,23.29,4
-0.79,2.34,9.65,-1.56,-0.01,0.52,23.3,4
-1.09,0.35,8.62,-2.85,0.25,0.92,23.3,4
-1.74,-2.27,8.29,-3.17,0.05,0.63,23.3,4
-1.42,-6.32,5.52,-3.35,0.21,0.22,23.29,4
-1.66,-8.4,3.27,-2.22,0.03,-0.03,23.3,4
-1.5,-9.48,1.85,-1.77,0.07,0.19,23.31,4
-1.79,-9.86,-0.53,-1.05,0.05,-0.11,23.31,4
-1.71,-9.56,-0.8,-1.7,-0.0,-0.16,23.3,4
