accel_x,accel_y,accel_z,gyro_x,gyro_y,gyro_z,temp_c,category
-0.46,1.5,9.56,-0.23,0.0,0.4,21.56,0
0.02,2.86,9.04,0.03,0.07,-0.15,21.57,0
-0.38,0.82,9.06,0.07,0.06,-0.49,21.57,0
-0.65,0.52,8.87,0.02,-0.12,-0.56,21.58,0
-0.4,0.23,9.42,0.15,-0.17,-0.53,21.57,0
-0.14,0.54,9.13,0.0,-0.11,-0.39,21.59,0
0.03,-0.19,9.43,-0.0,-0.02,-0.27,21.59,0
-0.36,-0.49,8.95,-0.15,0.02,-0.24,21.6,0
-0.34,-0.72,9.29,-0.04,-0.01,-0.1,21.59,0
-0.35,-0.76,9.24,0.03,0.01,0.05,21.59,0
-0.4,-1.32,9.2,-0.03,-0.17,-0.08,21.59,0
0.12,-2.11,9.15,-0.01,-0.18,-0.06,21.6,0
-0.26,-1.85,9.19,0.04,-0.18,0.08,21.59,0
-0.35,-1.19,9.2,-0.04,-0.07,0.23,21.6,0
-0.14,-0.97,9.31,-0.07,0.13,0.26,21.6,0
0.03,-0.8,9.35,0.01,0.04,0.49,21.59,0
0.03,-0.15,9.18,-0.02,0.08,0.55,21.59,0
-0.28,0.03,9.16,-0.08,0.07,0.57,21.59,0
-0.42,0.31,9.25,-0.01,0.1,0.55,21.59,0
-0.42,0.67,8.8,0.06,-0.0,0.42,21.6,0
-0.17,0.67,9.19,0.04,-0.12,0.37,21.59,0
-0.15,1.63,9.29,0.03,-0.02,0.36,21.6,0
-0.25,2.12,9.33,0.01,0.05,-0.04,21.6,0
-0.23,1.55,9.4,0.08,0.04,-0.45,21.61,0
-0.47,0.8,8.92,-0.1,0.08,-0.51,21.61,0
-0.24,0.49,9.29,0.05,-0.02,-0.6,21.61,0
-0.62,0.17,9.2,-0.01,0.06,-0.61,21.61,0
-0.96,-0.13,8.89,-0.06,0.0,-0.44,21.6,0
-0.86,-0.57,9.06,-0.09,0.02,-0.4,21.61,0
-0.73,-1.14,8.99,0.01,-0.2,-0.17,21.61,0
-0.76,-1.32,9.16,-0.1,-0.07,-0.11,21.62,0
0.21,-1.11,9.51,0.16,-0.21,-0.01,21.62,0
-0.22,-2.74,9.11,0.01,-0.1,-0.14,21.61,0
-0.47,-2.43,9.23,0.15,-0.14,0.03,21.62,0
-0.48,-1.66,8.99,0.1,-0.05,0.18,21.62,0
0.04,-0.79,9.43,0.21,-0.07,0.33,21.61,0
-0.2,0.12,9.15,0.18,-0.02,0.44,21.6,0
0.15,0.46,9.43,-0.13,-0.07,0.38,21.6,0
-0.71,0.37,9.16,-0.37,0.14,0.44,21.61,0
-0.47,0.3,9.18,0.01,0.05,0.49,21.61,0
-0.58,0.94,9.1,-0.04,0.07,0.48,21.62,0
-0.62,0.35,9.12,-0.1,-0.01,0.26,21.62,0
-0.5,1.53,8.97,0.02,0.01,0.36,21.62,0
-0.86,2.12,9.09,-0.04,0.01,-0.2,21.61,0
-0.9,1.47,8.92,0.12,-0.08,-0.53,21.63,0
-0.58,0.47,9.02,0.01,-0.06,-0.52,21.62,0
-0.48,0.29,9.33,0.15,0.06,-0.7,21.62,0
-0.64,0.0,9.11,0.05,0.04,-0.52,21.62,0
-0.91,-0.26,8.73,0.04,-0.12,-0.47,21.62,0
-0.82,-0.53,9.08,0.04,-0.14,-0.23,21.61,0
-0.79,-0.38,9.26,-0.12,0.02,-0.01,21.63,0
-0.54,-0.62,9.58,-0.03,-0.09,0.1,21.62,0
-0.17,-0.72,9.08,-0.08,-0.03,-0.02,21.62,0
-0.6,-1.89,9.0,-0.08,-0.16,-0.06,21.63,0
-0.52,-1.93,9.32,0.09,-0.09,-0.13,21.63,0
-0.1,-1.26,9.4,0.07,0.0,-0.03,21.64,0
-0.05,-0.89,9.28,0.07,-0.01,0.07,21.63,0
-0.4,-0.63,9.24,0.1,-0.08,0.18,21.64,0
-0.43,-0.02,8.94,0.2,-0.02,0.38,21.62,0
-0.15,0.56,9.06,-0.04,-0.01,0.41,21.62,0
-0.36,0.47,9.26,0.01,0.02,0.35,21.63,0
-0.57,0.98,9.09,-0.06,0.0,0.53,21.62,0
-0.23,0.61,9.29,-0.02,-0.05,0.47,21.63,0
-0.46,1.18,9.0,-0.13,0.03,0.46,21.63,0
-0.25,2.39,9.09,-0.1,-0.01,0.38,21.62,0
-0.52,1.81,9.14,0.05,-0.02,-0.14,21.63,0
-0.13,2.17,9.33,0.13,0.09,-0.37,21.63,0
-0.75,1.26,9.09,0.16,0.05,-0.53,21.63,0
-0.6,1.11,8.87,0.15,0.03,-0.59,21.64,0
-1.31,0.05,8.89,0.04,-0.08,-0.54,21.64,0
-0.78,0.02,9.29,-0.07,-0.09,-0.37,21.63,0
-0.63,0.16,9.29,-0.16,0.01,-0.18,21.64,0
-0.6,-0.31,9.23,-0.26,-0.06,-0.09,21.64,0
-0.73,-0.81,9.51,-0.2,-0.05,-0.19,21.64,0
-0.67,-1.13,9.01,-0.08,-0.13,-0.12,21.64,0
-0.28,-1.55,9.52,0.01,-0.21,-0.1,21.63,0
-0.14,-2.01,9.24,0.03,-0.01,-0.16,21.64,0
-0.16,-1.57,9.24,0.15,-0.06,-0.02,21.64,0
-0.49,-0.82,9.18,0.06,-0.04,0.07,21.64,0
-0.19,-0.5,9.36,-0.24,0.19,0.25,21.63,0
-0.63,-0.95,9.02,-0.07,-0.03,0.33,21.63,0
-0.29,-0.16,9.37,0.12,-0.03,0.43,21.63,0
-0.38,0.79,9.05,0.04,0.0,0.63,21.64,0
-0.77,0.74,9.17,0.0,-0.04,0.37,21.63,0
-0.41,0.78,9.19,-0.02,-0.06,0.28,21.63,0
-0.2,1.24,9.18,-0.0,-0.03,0.46,21.64,0
-0.47,1.73,8.95,0.01,-0.01,0.27,21.63,0
-0.29,2.25,9.2,0.11,-0.04,-0.12,21.63,0
-0.45,2.04,9.13,0.11,0.19,-0.24,21.64,0
-0.93,1.25,9.02,0.08,0.1,-0.48,21.63,0
-1.02,0.9,9.11,0.26,-0.07,-0.58,21.64,0
-1.3,0.47,8.8,0.09,-0.2,-0.56,21.64,0
-0.58,0.29,9.08,-0.03,-0.26,-0.44,21.64,0
-0.63,0.11,9.29,0.03,-0.33,-0.24,21.64,0
0.06,0.22,9.51,-0.25,-0.13,-0.24,21.65,0
-0.27,-0.57,9.32,-0.29,-0.02,-0.22,21.65,0
0.01,-1.13,9.46,-0.14,-0.08,-0.21,21.64,0
-0.12,-1.75,9.13,0.12,-0.16,-0.1,21.64,0
-0.37,-2.14,9.34,0.01,0.01,-0.03,21.65,0
0.21,-1.18,9.18,0.09,0.01,0.07,21.64,0
0.09,-1.08,9.41,0.08,0.0,0.23,21.64,0
0.41,-0.42,9.43,0.24,-0.03,0.39,21.63,0
-0.17,-0.11,9.25,0.28,0.02,0.62,21.64,0
-0.28,1.34,9.0,0.16,0.07,0.86,21.64,0
-0.35,2.0,8.97,-0.07,0.14,0.78,21.64,0
-0.73,1.83,8.84,-0.13,0.03,0.58,21.64,0
-0.51,1.98,8.89,-0.13,-0.13,0.33,21.65,0
-0.21,2.2,9.43,-0.05,-0.05,0.04,21.64,0
-0.31,2.03,9.14,0.04,0.04,-0.29,21.63,0
-0.72,1.8,8.96,-0.11,0.06,-0.47,21.64,0
-0.66,0.83,9.34,0.05,0.03,-0.49,21.64,0
-0.97,0.83,8.83,0.02,0.07,-0.54,21.65,0
-0.98,-0.1,8.93,-0.07,-0.09,-0.51,21.64,0
-0.82,-0.31,9.29,-0.02,-0.11,-0.39,21.64,0
-0.61,-0.51,9.24,-0.05,-0.15,-0.24,21.65,0
-0.43,-0.54,9.11,-0.01,-0.14,-0.23,21.66,0
-0.18,-0.53,9.06,0.0,-0.23,-0.24,21.66,0
-0.43,-1.23,9.33,-0.03,-0.2,-0.23,21.65,0
0.33,-1.47,9.34,0.05,-0.09,-0.11,21.65,0
-0.19,-1.5,9.44,0.12,-0.08,0.07,21.65,0
0.23,-0.74,9.23,0.14,0.07,0.21,21.66,0
-0.63,-0.52,9.43,0.11,0.05,0.29,21.66,0
-0.0,0.11,8.92,0.01,0.11,0.37,21.66,0
-0.2,0.66,8.98,0.03,-0.11,0.42,21.66,0
-0.33,1.01,9.39,-0.04,-0.14,0.44,21.65,0
-0.18,1.08,9.59,-0.03,-0.06,0.33,21.66,0
-0.11,1.04,8.94,-0.03,0.16,0.4,21.65,0
-0.23,1.72,9.02,0.0,0.01,0.51,21.66,0
-0.51,2.42,8.98,-0.05,0.0,0.16,21.65,0
-0.56,1.84,8.98,0.11,-0.11,-0.21,21.66,0
-0.1,2.03,9.36,-0.08,0.01,-0.23,21.65,0
-0.5,1.46,8.82,0.15,-0.11,-0.44,21.66,0
-0.18,1.0,9.1,0.06,-0.04,-0.66,21.65,0
-0.51,0.01,9.36,-0.02,-0.08,-0.56,21.67,0
-0.71,-0.36,9.07,-0.12,-0.06,-0.38,21.66,0
-0.58,-0.62,9.29,0.04,-0.18,-0.3,21.66,0
0.02,-0.38,9.7,0.02,-0.03,-0.16,21.65,0
0.15,-0.03,9.1,0.05,-0.21,-0.2,21.66,0
0.26,-1.15,9.36,-0.04,-0.13,-0.13,21.66,0
0.34,-1.27,9.26,-0.01,0.0,-0.08,21.65,0
0.18,-1.21,9.42,0.03,-0.01,0.11,21.66,0
-0.12,-0.76,9.25,-0.05,-0.03,0.19,21.66,0
0.2,-0.11,9.28,-0.07,0.04,0.33,21.67,0
-0.04,0.02,9.09,-0.05,-0.04,0.34,21.66,0
-0.18,0.4,8.92,0.09,-0.12,0.34,21.67,0
0.11,0.61,9.49,0.09,-0.11,0.5,21.65,0
0.3,1.02,9.31,0.13,0.05,0.55,21.67,0
-0.15,1.94,8.96,0.03,0.08,0.55,21.67,0
-0.25,2.35,9.01,-0.09,0.05,0.18,21.66,0
-0.36,2.1,9.16,0.1,0.04,-0.27,21.67,0
-0.54,1.68,9.07,-0.02,0.07,-0.44,21.67,0
-0.25,1.44,9.31,0.03,0.01,-0.54,21.67,0
-0.45,0.97,9.14,-0.07,0.06,-0.59,21.67,0
-0.51,0.31,9.24,0.03,-0.01,-0.59,21.66,0
-0.34,-0.17,9.17,0.02,-0.06,-0.41,21.67,0
-0.44,0.44,9.29,-0.03,0.05,-0.16,21.67,0
0.55,1.21,9.35,0.07,-0.08,-0.06,21.67,0
0.31,-0.11,9.52,-0.06,-0.12,-0.21,21.67,0
0.16,-1.59,9.45,-0.16,-0.12,-0.19,21.67,0
-0.22,-1.45,9.23,-0.0,-0.13,-0.04,21.67,0
-0.11,-1.3,9.48,-0.05,-0.03,0.13,21.67,0
0.15,-0.22,9.39,-0.01,-0.03,0.22,21.67,0
-0.14,-0.17,9.29,0.03,0.03,0.35,21.67,0
0.03,0.37,9.26,-0.09,-0.03,0.43,21.67,0
-0.3,0.25,9.36,0.04,-0.12,0.41,21.67,0
-0.38,0.64,9.05,-0.02,-0.0,0.48,21.66,0
-0.25,1.15,9.08,0.08,-0.05,0.41,21.67,0
-0.16,1.43,9.02,0.11,-0.16,-0.04,21.66,0
0.02,1.57,8.94,-0.02,-0.06,0.24,21.66,0
-0.39,2.28,8.86,0.01,-0.05,0.29,21.66,0
-0.02,2.28,9.41,0.0,0.07,0.07,21.67,0
-0.47,2.2,9.03,0.02,0.18,-0.15,21.66,0
-0.67,1.37,9.1,-0.03,0.13,-0.38,21.67,0
-0.74,1.24,9.1,0.1,-0.0,-0.45,21.67,0
-0.43,0.94,9.15,0.0,-0.12,-0.49,21.67,0
-0.48,0.59,9.15,-0.06,-0.09,-0.55,21.67,0
-0.44,0.03,9.24,-0.07,-0.03,-0.42,21.67,0
-0.7,0.17,9.14,0.03,-0.04,-0.26,21.65,0
-0.72,0.44,9.17,-0.14,0.13,0.01,21.67,0
-0.65,-0.4,9.08,-0.12,-0.14,-0.26,21.67,0
-0.24,-1.49,8.89,-0.14,-0.17,0.0,21.67,0
0.31,-1.67,9.88,-0.02,-0.12,0.01,21.68,0
0.45,-1.26,9.68,-0.09,-0.03,0.11,21.67,0
0.38,-0.65,9.31,0.11,-0.05,0.24,21.68,0
0.16,-0.14,9.18,0.07,-0.08,0.42,21.68,0
-0.05,0.29,9.26,0.15,-0.14,0.45,21.67,0
-0.33,0.11,9.02,0.08,-0.16,0.47,21.66,0
-0.25,0.88,9.16,0.09,-0.1,0.63,21.67,0
-0.08,1.06,9.27,-0.07,-0.05,0.53,21.67,0
0.24,1.22,9.07,-0.05,-0.07,0.48,21.66,0
-0.01,2.23,9.05,0.1,-0.02,0.3,21.66,0
-0.05,2.09,9.1,0.01,-0.01,-0.0,21.67,0
0.13,2.34,9.11,-0.07,0.06,-0.33,21.67,0
-0.23,1.41,9.0,0.13,0.02,-0.45,21.67,0
0.01,0.94,9.39,0.09,-0.01,-0.63,21.67,0
-0.21,0.11,9.38,0.08,-0.07,-0.58,21.68,0
-0.43,0.15,9.24,0.01,-0.02,-0.36,21.66,0
0.35,0.35,9.48,-0.1,-0.22,-0.39,21.66,0
0.32,-0.28,9.33,-0.28,-0.13,-0.33,21.67,0
0.06,-0.73,9.49,-0.29,0.09,-0.2,21.67,0
-0.06,-1.16,9.03,-0.12,-0.01,-0.27,21.67,0
0.05,-1.73,9.08,-0.05,-0.09,-0.23,21.67,0
0.09,-2.12,9.27,0.05,-0.13,-0.07,21.67,0
0.55,-1.76,9.79,0.11,0.02,0.13,21.68,0
-0.31,-1.4,8.93,0.21,-0.08,0.28,21.67,0
0.44,-0.89,9.14,0.12,0.03,0.48,21.68,0
-0.19,-0.17,9.11,0.16,0.02,0.42,21.68,0
0.35,0.69,9.07,0.1,0.04,0.27,21.67,0
0.16,0.71,8.82,0.04,0.06,0.47,21.67,0
-0.15,1.15,8.88,-0.01,-0.03,0.69,21.66,0
-0.06,1.62,9.34,-0.16,-0.03,0.54,21.66,0
0.08,1.98,9.17,0.12,-0.02,0.5,21.66,0
0.01,2.49,9.01,0.04,0.02,0.17,21.67,0
-0.01,2.38,9.05,-0.13,0.03,-0.18,21.68,0
-0.24,1.77,9.05,-0.18,0.09,-0.42,21.67,0
-0.28,1.52,9.21,-0.17,0.1,-0.41,21.68,0
-0.42,0.21,9.38,-0.26,0.13,-0.5,21.68,0
-0.48,-0.62,9.24,-0.01,0.0,-0.5,21.69,0
-0.19,-0.51,9.05,0.08,-0.17,-0.47,21.68,0
0.04,-0.43,9.14,0.08,-0.23,-0.46,21.67,0
0.38,-0.37,9.41,0.14,-0.23,-0.4,21.68,0
0.42,-0.6,9.05,-0.02,-0.13,-0.26,21.69,0
0.22,-1.49,9.46,-0.05,-0.15,-0.14,21.68,0
0.48,-1.55,9.61,-0.05,-0.03,0.01,21.68,0
0.71,-1.18,9.34,0.04,-0.02,0.2,21.69,0
0.55,-0.71,9.0,0.1,0.06,0.29,21.69,0
0.39,-0.56,9.25,0.11,0.03,0.32,21.69,0
0.56,0.39,9.33,0.23,-0.0,0.41,21.69,0
0.07,0.91,9.06,-0.15,-0.01,0.35,21.68,0
0.03,1.3,9.17,-0.08,0.05,0.61,21.69,0
-0.18,1.33,9.17,0.09,0.04,0.48,21.69,0
0.03,1.53,9.17,0.05,0.03,0.38,21.69,0
-0.09,2.42,9.0,-0.01,-0.08,0.28,21.69,0
-0.37,2.13,8.95,-0.03,0.05,-0.14,21.69,0
0.05,2.05,8.95,0.03,0.0,-0.2,21.69,0
-0.25,1.2,9.14,-0.12,0.02,-0.26,21.68,0
-0.19,0.63,9.22,-0.2,-0.0,-0.41,21.69,0
-0.01,0.65,9.15,-0.04,-0.01,-0.41,21.69,0
0.06,0.61,9.45,-0.05,-0.12,-0.38,21.7,0
-0.33,0.8,9.03,-0.06,-0.07,-0.53,21.68,0
-0.38,-0.25,9.2,-0.09,0.04,-0.39,21.69,0
-1.02,-0.56,8.86,-0.02,0.1,0.02,21.69,0
0.35,-0.64,8.91,-0.08,-0.24,0.0,21.69,0
0.36,-1.73,9.45,-0.16,-0.09,0.01,21.7,0
0.37,-2.29,9.46,0.04,-0.16,-0.14,21.69,0
0.48,-1.68,9.38,0.14,-0.17,0.13,21.69,0
-0.01,-1.25,9.04,0.06,0.03,0.27,21.7,0
0.63,-0.35,9.45,0.15,0.08,0.31,21.7,0
0.35,0.58,9.21,0.12,-0.04,0.16,21.69,0
-0.1,0.92,9.22,-0.03,0.12,0.12,21.7,0
-0.08,0.37,8.95,0.08,0.01,0.31,21.7,0
-0.34,1.0,9.03,0.14,-0.09,0.52,21.69,0
-0.05,1.69,9.17,-0.02,0.02,0.5,21.69,0
-0.25,1.85,9.22,-0.04,0.01,0.33,21.68,0
-0.36,1.96,9.03,0.02,0.04,0.09,21.69,0
-0.59,1.75,9.06,-0.14,0.1,-0.11,21.69,0
-0.46,1.5,8.88,-0.09,-0.03,-0.18,21.7,0
-0.49,0.34,9.43,-0.14,-0.2,-0.47,21.69,0
-0.11,0.67,9.25,-0.06,-0.0,-0.52,21.69,0
-0.2,-0.33,9.06,0.06,-0.22,-0.59,21.69,0
-0.12,-0.26,9.39,0.01,-0.19,-0.5,21.7,0
0.58,-0.35,9.36,0.06,-0.2,-0.4,21.69,0
0.34,-0.36,9.34,-0.02,-0.07,-0.11,21.69,0
0.43,-0.18,9.02,-0.07,-0.06,0.01,21.71,0
0.84,-0.87,9.3,-0.13,-0.12,0.05,21.7,0
0.8,-1.69,9.61,-0.09,0.01,-0.02,21.69,0
0.25,-1.78,9.41,0.01,0.08,0.19,21.71,0
-0.15,-1.43,8.89,0.05,0.11,0.43,21.7,0
0.16,-0.77,9.01,0.05,-0.07,0.59,21.69,0
-0.23,-0.46,9.22,-0.09,0.15,0.65,21.69,0
0.14,0.57,9.43,0.03,-0.02,0.56,21.69,0
0.07,0.84,9.48,0.03,0.06,0.44,21.7,0
-0.4,0.78,9.22,-0.05,0.1,0.11,21.7,0
-0.46,0.86,9.01,-0.07,0.08,0.35,21.7,0
-0.37,1.89,9.11,-0.17,-0.02,0.26,21.71,0
-0.63,1.32,9.19,0.11,-0.04,-0.18,21.71,0
-0.16,1.36,9.53,0.09,0.05,-0.25,21.72,0
-0.38,1.35,8.86,0.03,0.1,-0.44,21.71,0
-1.14,0.45,8.73,0.01,-0.05,-0.6,21.7,0
-0.09,0.41,9.63,-0.07,-0.08,-0.55,21.71,0
-0.37,-0.39,9.45,0.06,-0.05,-0.3,21.7,0
-0.35,-0.37,9.36,-0.08,-0.04,-0.2,21.71,0
-0.17,-0.33,9.27,-0.05,-0.01,-0.23,21.71,0
-0.55,-0.63,9.05,-0.12,-0.06,-0.22,21.69,0
-0.42,-0.65,9.14,-0.05,-0.13,-0.23,21.71,0
-0.24,-1.37,9.31,-0.06,-0.02,-0.18,21.7,0
-1.05,-2.1,9.12,0.01,-0.02,-0.05,21.7,0
0.33,-0.98,9.49,0.11,-0.07,0.09,21.72,0
-0.2,-1.42,9.09,0.0,0.02,0.13,21.72,0
0.07,-0.78,9.07,0.14,-0.14,0.29,21.71,0
-0.16,-0.54,9.45,0.02,0.0,0.39,21.71,0
-0.48,0.02,9.43,-0.02,0.09,0.48,21.71,0
-0.63,0.48,9.0,0.11,0.07,0.49,21.7,0
-0.63,0.77,8.88,-0.11,-0.01,0.45,21.71,0
-0.81,0.66,9.09,-0.19,-0.05,0.5,21.71,0
-0.64,1.37,9.18,-0.03,-0.09,0.4,21.7,0
-0.69,1.79,9.31,0.11,-0.01,0.08,21.7,0
-0.76,1.5,9.16,0.07,-0.05,-0.03,21.71,0
-0.73,1.59,9.14,-0.0,-0.0,-0.12,21.72,0
-0.65,1.19,9.17,-0.03,0.08,-0.41,21.72,0
-1.12,-0.25,9.13,-0.15,0.09,-0.56,21.72,0
-0.77,-0.34,8.78,-0.19,-0.02,-0.41,21.73,0
-0.82,-0.97,9.36,-0.07,-0.09,-0.32,21.72,0
-0.78,-1.3,9.36,0.01,-0.15,-0.35,21.72,0
-0.26,-1.03,9.43,0.08,-0.17,-0.24,21.72,0
-0.26,-0.91,9.07,0.04,-0.13,-0.15,21.72,0
-0.15,-1.06,8.97,-0.02,-0.1,-0.11,21.72,0
-0.26,-1.66,9.34,0.04,-0.11,-0.05,21.73,0
0.09,-1.07,9.26,0.17,-0.09,0.03,21.72,0
0.14,-1.18,9.41,0.13,0.05,0.15,21.72,0
0.18,-0.68,9.21,0.13,0.01,0.25,21.72,0
0.15,0.1,9.39,0.26,-0.08,0.21,21.72,0
0.21,0.55,9.17,0.13,0.12,0.13,21.72,0
-0.69,0.83,8.99,0.02,0.09,0.45,21.72,0
-0.51,1.74,9.18,0.06,-0.03,0.41,21.72,0
-0.59,1.53,9.08,-0.08,-0.02,0.35,21.72,0
-0.6,1.79,9.0,-0.07,-0.01,0.29,21.71,0
-0.73,2.05,9.07,0.02,-0.01,0.1,21.72,0
-0.78,1.96,8.92,-0.18,0.12,0.13,21.72,0
-1.02,1.21,9.13,-0.27,0.09,-0.07,21.72,0
-1.13,0.4,9.02,0.03,-0.15,-0.4,21.72,0
-0.79,0.25,9.1,0.14,-0.17,-0.46,21.72,0
-0.51,0.0,9.33,0.14,-0.21,-0.37,21.72,0
-0.62,0.02,9.41,0.05,-0.24,-0.27,21.71,0
-0.22,0.15,9.34,-0.12,-0.03,-0.25,21.72,0
-0.2,-0.69,9.06,-0.07,-0.14,-0.32,21.72,0
-0.19,-1.17,9.11,-0.14,-0.11,-0.16,21.72,0
-0.06,-1.34,9.31,-0.03,-0.16,-0.1,21.72,0
0.42,-1.18,9.96,0.05,-0.08,-0.04,21.73,0
0.32,-1.22,9.46,-0.08,0.16,0.05,21.73,0
-0.37,-0.92,8.88,-0.07,0.03,0.15,21.73,0
-0.13,-0.2,9.25,0.08,-0.17,0.13,21.72,0
-0.23,0.22,9.43,0.18,-0.04,0.27,21.73,0
-0.52,0.33,9.07,0.08,0.04,0.4,21.73,0
-0.37,0.3,9.1,0.03,0.09,0.5,21.73,0
-0.54,0.55,9.02,-0.03,0.0,0.45,21.73,0
-0.47,0.62,9.2,-0.06,-0.03,0.4,21.73,0
-0.44,1.39,9.14,-0.04,-0.02,0.32,21.72,0
-0.62,1.72,8.99,0.05,-0.05,0.03,21.74,0
-0.39,1.28,9.3,0.13,-0.01,-0.12,21.73,0
-0.61,1.26,9.26,0.14,0.02,-0.23,21.74,0
-0.51,1.22,9.05,0.05,-0.06,-0.45,21.73,0
-0.71,-0.01,9.22,0.01,-0.12,-0.53,21.73,0
-0.52,0.06,9.18,-0.08,-0.02,-0.36,21.73,0
-0.56,-0.3,9.14,-0.2,-0.03,-0.18,21.74,0
-0.69,-0.55,9.09,-0.12,-0.06,-0.14,21.73,0
-0.42,-0.69,9.26,-0.08,-0.11,-0.21,21.73,0
-0.23,-1.16,9.44,-0.04,-0.14,-0.14,21.73,0
-0.09,-1.54,9.36,0.01,-0.14,-0.15,21.73,0
-0.29,-1.57,9.27,0.04,-0.03,-0.04,21.73,0
0.38,-1.41,9.36,0.15,-0.13,-0.05,21.73,0
0.42,-0.77,9.5,0.3,-0.16,0.08,21.73,0
-0.07,-0.77,9.51,0.33,0.02,0.16,21.74,0
0.25,1.16,8.86,0.3,0.02,0.33,21.73,0
-0.09,1.16,8.83,-0.09,0.13,0.55,21.73,0
-0.59,1.4,8.93,-0.07,0.05,0.55,21.72,0
-0.5,1.94,9.02,-0.15,-0.03,0.62,21.72,0
-0.31,1.91,9.15,-0.03,0.0,0.41,21.73,0
-0.51,2.16,9.12,0.02,0.01,0.12,21.72,0
-0.54,2.27,9.14,0.0,0.07,-0.13,21.73,0
-0.78,1.56,9.11,0.1,-0.01,-0.32,21.74,0
-0.87,1.2,8.93,-0.05,-0.11,-0.43,21.73,0
-0.67,0.26,9.35,-0.04,-0.09,-0.59,21.74,0
-0.44,-0.16,9.25,-0.04,-0.12,-0.56,21.74,0
-0.3,0.02,9.36,-0.02,-0.04,-0.37,21.74,0
-0.67,-0.4,8.91,-0.08,-0.01,-0.29,21.73,0
-0.39,-0.04,8.97,0.02,-0.18,-0.28,21.75,0
-0.39,-0.37,9.15,-0.0,-0.11,-0.27,21.74,0
-0.42,-0.49,9.34,0.0,-0.16,-0.16,21.74,0
-0.04,-1.02,9.32,0.02,-0.11,-0.08,21.74,0
-0.26,-1.33,9.33,-0.02,-0.05,-0.04,21.73,0
-0.06,-1.22,9.37,0.08,-0.05,0.07,21.74,0
-0.17,-1.62,9.03,0.05,0.02,0.26,21.74,0
0.2,-0.03,9.58,0.1,-0.04,0.4,21.74,0
0.28,0.69,8.85,-0.03,-0.03,0.37,21.75,0
-0.23,0.08,9.21,-0.02,-0.05,0.35,21.73,0
0.13,1.33,9.32,0.15,-0.04,0.53,21.74,0
0.03,1.51,9.22,0.07,0.04,0.48,21.75,0
-0.53,1.73,8.86,0.05,0.02,0.45,21.74,0
0.06,2.83,9.25,-0.14,-0.04,0.21,21.74,0
-0.47,2.24,9.16,-0.07,0.05,-0.07,21.75,0
-0.28,1.35,9.15,-0.25,0.23,-0.06,21.75,0
-0.76,1.1,8.9,0.28,-0.02,-0.29,21.74,0
-0.71,0.87,8.73,-0.11,-0.14,-0.48,21.74,0
0.03,0.18,9.62,0.02,-0.25,-0.47,21.74,0
0.15,0.22,9.35,-0.05,-0.12,-0.36,21.73,0
-0.02,-0.12,9.33,-0.16,-0.08,-0.3,21.74,0
-0.08,-0.18,9.2,-0.11,0.02,-0.19,21.74,0
-0.13,-0.49,9.09,-0.13,-0.01,-0.23,21.75,0
0.03,-0.77,9.22,-0.01,-0.08,-0.21,21.74,0
0.2,-1.63,9.28,-0.04,-0.05,-0.15,21.75,0
-0.21,-1.47,9.43,0.14,-0.09,-0.05,21.75,0
0.23,-0.88,9.38,0.07,0.02,0.02,21.75,0
-0.07,-0.9,9.2,0.21,-0.1,0.15,21.75,0
0.08,-0.02,9.18,-0.02,0.05,0.23,21.75,0
0.11,-0.03,9.29,-0.08,0.02,0.33,21.74,0
-0.38,0.44,9.06,-0.0,0.07,0.56,21.74,0
-0.49,1.01,9.0,-0.13,0.05,0.55,21.75,0
-0.2,1.17,9.11,-0.09,-0.05,0.63,21.74,0
-0.38,1.72,9.17,-0.02,-0.09,0.37,21.75,0
-0.27,2.03,9.34,0.06,0.02,0.06,21.74,0
-0.36,1.89,9.07,0.16,0.09,-0.15,21.74,0
-0.79,1.17,9.02,-0.04,0.1,-0.38,21.75,0
-0.53,0.9,9.09,0.13,-0.13,-0.49,21.76,0
-0.21,0.64,9.21,-0.08,-0.15,-0.46,21.75,0
0.16,-0.0,8.98,-0.08,-0.21,-0.38,21.77,0
0.0,-0.44,9.89,0.07,-0.13,-0.36,21.75,0
-0.27,-0.48,9.16,-0.03,-0.03,-0.33,21.76,0
0.14,-0.57,9.18,0.02,-0.13,-0.29,21.75,0
0.21,-0.95,9.14,0.03,-0.14,-0.18,21.76,0
0.09,-1.23,9.23,0.05,-0.05,-0.1,21.77,0
0.37,-0.68,9.12,0.16,-0.14,0.04,21.76,0
-0.21,-0.9,9.28,0.02,-0.03,0.15,21.76,0
0.34,-0.44,9.52,0.05,0.02,0.31,21.76,0
0.22,0.27,9.39,0.05,-0.01,0.4,21.75,0
-0.1,0.26,9.36,-0.02,0.17,0.48,21.75,0
-0.13,0.68,9.03,0.01,-0.01,0.35,21.76,0
-0.05,1.1,9.17,-0.11,0.09,0.51,21.76,0
-0.2,1.67,9.05,-0.02,0.04,0.52,21.76,0
-0.39,2.15,8.94,-0.05,-0.04,0.21,21.75,0
-0.35,2.19,9.14,0.03,-0.07,-0.1,21.76,0
-0.58,1.62,9.08,-0.02,0.12,-0.34,21.76,0
-0.44,1.34,9.07,0.12,-0.12,-0.39,21.75,0
-0.24,0.55,9.14,-0.06,-0.11,-0.49,21.76,0
0.01,0.07,8.95,0.01,-0.25,-0.52,21.76,0
-0.01,-0.43,9.46,-0.04,-0.17,-0.36,21.76,0
0.17,-0.16,9.24,0.09,-0.19,-0.27,21.76,0
0.77,0.26,9.31,0.16,-0.17,-0.23,21.76,0
0.86,-0.23,9.3,-0.06,-0.07,-0.23,21.75,0
0.12,-1.47,9.24,0.02,-0.03,-0.11,21.76,0
0.8,-0.87,9.65,0.01,-0.05,0.1,21.75,0
0.51,-0.72,9.5,-0.07,0.16,0.29,21.76,0
0.62,-0.11,9.46,-0.05,0.22,0.5,21.76,0
0.52,1.0,9.2,-0.02,0.15,0.56,21.75,0
0.18,0.96,9.01,-0.09,0.11,0.56,21.75,0
-0.11,0.71,9.08,-0.08,0.01,0.57,21.76,0
0.03,0.82,9.21,0.04,-0.0,0.47,21.76,0
-0.37,1.65,9.02,0.02,0.11,0.51,21.76,0
-0.43,2.61,8.74,-0.09,0.0,0.29,21.77,0
-0.52,2.38,9.08,0.07,-0.01,-0.18,21.77,0
-0.59,1.68,8.91,-0.06,-0.05,-0.45,21.77,0
-0.37,1.2,9.25,0.16,-0.12,-0.47,21.76,0
0.07,1.22,9.2,0.06,-0.14,-0.6,21.77,0
-0.23,0.31,9.15,0.06,-0.18,-0.62,21.77,0
-0.42,-0.34,9.19,-0.14,-0.1,-0.4,21.78,0
-0.19,-0.25,9.39,0.06,-0.11,-0.26,21.77,0
0.79,0.06,9.05,0.04,-0.1,-0.21,21.77,0
0.27,-0.6,9.17,-0.08,-0.08,-0.15,21.77,0
0.5,-0.72,9.58,-0.06,-0.12,-0.07,21.78,0
0.37,-1.0,9.31,0.02,0.02,-0.1,21.77,0
0.77,-0.89,9.21,0.07,0.01,0.06,21.78,0
-0.2,-0.78,9.02,0.03,0.05,0.3,21.76,0
0.24,0.36,9.56,0.04,0.04,0.55,21.76,0
0.33,0.99,9.21,0.07,0.1,0.65,21.76,0
-0.05,1.24,9.22,-0.19,0.13,0.64,21.76,0
-0.07,1.38,9.15,-0.23,0.11,0.53,21.76,0
-0.48,1.12,8.95,-0.05,-0.01,0.38,21.76,0
-0.49,1.53,9.14,0.04,-0.08,0.18,21.77,0
-0.24,1.97,9.38,0.08,-0.05,-0.15,21.77,0
-0.59,1.31,9.17,0.09,-0.02,-0.43,21.77,0
-0.48,0.92,8.81,0.08,-0.2,-0.5,21.77,0
0.11,0.63,9.46,0.0,-0.17,-0.51,21.78,0
0.17,0.33,9.49,0.01,-0.08,-0.52,21.78,0
-0.29,-0.21,8.89,-0.09,-0.03,-0.48,21.78,0
0.32,-0.5,9.21,-0.12,-0.12,-0.29,21.77,0
-0.15,-0.78,9.31,-0.11,-0.09,-0.19,21.77,0
0.51,-0.63,9.3,-0.08,-0.06,-0.17,21.77,0
0.27,-1.38,9.25,0.04,-0.02,-0.09,21.76,0
0.18,-1.44,9.24,0.12,-0.07,0.06,21.77,0
0.36,-1.27,9.47,0.11,0.02,0.15,21.77,0
-0.18,-0.92,9.22,0.19,-0.01,0.31,21.78,0
0.1,0.77,9.26,0.14,0.11,0.45,21.77,0
-0.2,1.2,8.83,-0.04,0.12,0.39,21.77,0
-0.41,0.64,9.22,-0.22,0.0,0.49,21.77,0
-0.08,1.0,9.2,-0.04,0.07,0.51,21.77,0
-0.54,1.07,8.82,-0.08,-0.01,0.43,21.78,0
-0.45,0.95,9.19,-0.3,0.01,0.42,21.79,0
-0.58,1.93,9.28,-0.02,-0.01,0.21,21.77,0
-0.43,2.23,9.19,0.1,0.03,-0.31,21.78,0
-0.41,1.41,9.08,0.12,0.09,-0.52,21.78,0
-0.76,0.82,8.68,0.03,-0.08,-0.65,21.78,0
-0.53,-0.01,9.3,-0.05,-0.18,-0.63,21.79,0
-0.41,-0.15,9.13,0.05,-0.18,-0.52,21.78,0
0.02,0.23,9.0,0.1,-0.19,-0.31,21.79,0
0.27,-0.07,9.55,-0.05,-0.15,-0.28,21.79,0
0.37,-0.69,9.42,-0.11,-0.12,-0.1,21.79,0
0.94,-1.33,9.34,-0.04,-0.17,-0.05,21.79,0
0.29,-1.4,9.44,0.0,-0.04,0.06,21.78,0
0.86,-0.65,9.62,0.07,0.01,0.15,21.78,0
-0.02,-0.99,9.14,-0.02,0.04,0.31,21.78,0
0.54,-0.1,9.2,-0.02,0.06,0.43,21.78,0
0.36,0.53,9.01,-0.04,0.06,0.51,21.78,0
0.21,0.23,9.42,0.12,-0.05,0.47,21.77,0
0.37,0.82,9.24,0.1,-0.04,0.35,21.78,0
-0.01,1.19,9.14,-0.03,0.01,0.44,21.79,0
0.01,1.26,9.17,-0.07,0.02,0.34,21.78,0
-0.33,1.5,9.17,-0.05,0.05,0.25,21.78,0
-0.34,2.08,9.17,0.12,-0.02,-0.13,21.78,0
-0.5,1.24,9.25,0.01,-0.04,-0.45,21.79,0
-0.28,0.8,9.03,0.0,-0.02,-0.61,21.79,0
-0.19,0.33,8.93,0.08,-0.26,-0.6,21.79,0
0.43,-0.18,9.54,0.08,-0.15,-0.67,21.79,0
-0.13,-0.59,9.24,0.24,-0.14,-0.38,21.79,0
0.09,0.17,8.83,0.05,-0.15,-0.25,21.78,0
0.12,-0.05,9.04,-0.12,-0.11,-0.17,21.78,0
0.74,-0.13,9.5,-0.16,-0.15,-0.14,21.78,0
0.67,-0.36,9.24,-0.06,-0.14,-0.11,21.79,0
0.8,-1.2,9.13,-0.01,-0.1,-0.11,21.79,0
0.5,-1.84,9.37,-0.02,-0.05,-0.0,21.8,0
0.92,-2.0,9.34,-0.04,0.1,0.14,21.8,0
0.6,-0.84,9.31,0.05,-0.0,0.37,21.79,0
0.76,-0.05,9.01,0.16,-0.02,0.51,21.8,0
0.34,0.21,9.22,-0.12,0.05,0.62,21.8,0
0.41,0.33,9.39,-0.05,0.07,0.68,21.8,0
0.06,0.92,9.0,-0.0,-0.03,0.6,21.79,0
0.19,1.47,9.29,-0.22,0.04,0.49,21.79,0
-0.16,1.5,9.21,-0.14,0.13,0.15,21.79,0
-0.36,1.31,8.88,0.02,0.1,-0.13,21.78,0
-0.24,1.07,9.33,0.15,0.06,-0.4,21.8,0
-0.44,0.42,8.95,-0.07,-0.05,-0.58,21.8,0
-0.11,-0.55,9.27,0.05,-0.16,-0.52,21.79,0
0.3,-0.8,9.54,0.21,-0.18,-0.5,21.79,0
0.32,-0.25,9.1,0.21,-0.17,-0.43,21.79,0
0.25,-0.2,9.37,0.07,-0.14,-0.28,21.79,0
0.39,-0.02,9.12,-0.04,-0.09,-0.17,21.8,0
0.57,-0.21,9.13,-0.05,-0.09,-0.17,21.79,0
0.76,-1.17,9.21,0.0,-0.13,-0.17,21.79,0
0.29,-1.84,9.57,0.05,-0.04,-0.02,21.79,0
1.13,-1.17,9.51,0.03,0.03,0.27,21.81,0
0.66,-0.36,9.29,0.09,-0.03,0.42,21.79,0
0.94,0.26,9.19,0.13,-0.03,0.45,21.79,0
0.59,0.32,9.15,0.06,0.09,0.58,21.79,0
0.34,0.84,8.98,0.13,0.01,0.64,21.8,0
0.27,1.1,9.04,-0.03,0.03,0.62,21.8,0
0.29,1.52,9.22,-0.1,-0.03,0.59,21.79,0
0.24,2.34,9.11,-0.12,0.11,0.33,21.79,0
-0.14,2.18,8.95,0.08,0.0,-0.17,21.8,0
-0.43,1.48,8.98,0.14,-0.07,-0.5,21.79,0
-0.34,0.96,9.21,0.19,-0.04,-0.59,21.8,0
-0.29,0.48,9.42,0.13,-0.1,-0.53,21.8,0
0.19,0.63,9.32,0.1,-0.11,-0.51,21.79,0
-0.48,0.06,8.92,-0.03,-0.12,-0.45,21.79,0
0.52,0.06,9.45,-0.02,-0.22,-0.35,21.8,0
0.37,0.06,9.11,-0.13,-0.16,-0.22,21.8,0
0.78,-0.02,9.48,-0.22,-0.09,-0.17,21.8,0
0.7,-1.3,9.19,-0.18,-0.07,-0.12,21.8,0
0.17,-1.67,9.24,0.01,-0.1,0.03,21.8,0
0.69,-1.03,9.51,0.0,0.05,0.13,21.8,0
0.69,-0.91,9.26,0.02,0.05,0.23,21.8,0
0.46,-0.3,8.98,0.02,0.01,0.34,21.8,0
0.67,0.19,9.16,-0.03,0.0,0.34,21.8,0
0.14,0.02,9.49,-0.08,0.04,0.44,21.8,0
0.22,0.42,9.45,0.16,0.02,0.58,21.81,0
0.15,1.03,9.04,0.11,0.0,0.51,21.8,0
-0.11,1.01,8.99,-0.11,0.01,0.45,21.79,0
-0.04,1.66,9.19,-0.11,-0.06,0.3,21.8,0
-0.13,2.13,8.95,0.05,0.01,-0.12,21.81,0
0.03,1.37,9.33,0.11,-0.04,-0.42,21.81,0
-0.18,0.69,8.89,0.16,-0.06,-0.5,21.8,0
0.1,0.45,9.41,-0.05,-0.17,-0.5,21.8,0
0.49,0.27,9.55,0.05,-0.04,-0.43,21.82,0
0.1,0.15,9.31,0.07,-0.14,-0.38,21.8,0
0.42,0.15,9.28,0.0,-0.13,-0.35,21.82,0
0.5,0.22,9.37,-0.01,-0.1,-0.37,21.81,0
0.64,0.0,9.07,0.0,-0.15,-0.28,21.81,0
0.77,-0.82,9.18,0.14,-0.28,-0.17,21.81,0
0.93,-1.37,9.78,0.04,-0.09,-0.09,21.81,0
1.29,-0.85,9.58,0.12,-0.03,0.04,21.82,0
0.6,-0.72,9.37,0.03,0.16,0.22,21.82,0
0.77,0.09,9.14,0.05,0.04,0.34,21.82,0
0.37,0.42,9.26,-0.07,0.14,0.46,21.81,0
0.09,0.54,9.28,-0.11,0.1,0.56,21.81,0
-0.05,0.62,9.11,-0.07,0.09,0.63,21.82,0
-0.07,1.66,8.91,-0.06,0.01,0.64,21.82,0
-0.16,1.66,9.38,-0.19,0.01,0.45,21.83,0
-0.45,1.68,9.19,-0.06,-0.01,0.11,21.81,0
-0.4,1.71,9.08,0.06,0.06,-0.22,21.82,0
-0.6,1.25,8.96,0.15,-0.03,-0.41,21.82,0
-0.26,1.0,9.27,0.2,-0.15,-0.49,21.82,0
-0.19,0.44,9.17,-0.08,-0.09,-0.5,21.82,0
-0.18,0.1,9.0,0.01,-0.1,-0.46,21.83,0
0.0,0.34,9.17,0.07,-0.2,-0.3,21.82,0
0.19,0.1,9.35,-0.02,-0.22,-0.15,21.82,0
0.8,0.18,9.42,-0.03,-0.19,-0.11,21.83,0
1.14,0.14,9.41,0.01,-0.22,-0.12,21.83,0
1.53,-0.64,9.62,-0.04,-0.09,-0.13,21.83,0
0.84,-0.58,9.53,0.06,-0.05,0.02,21.82,0
0.92,-0.24,9.33,0.03,0.12,0.05,21.82,0
0.41,-0.4,9.09,-0.09,0.13,0.24,21.82,0
0.73,0.51,9.07,-0.2,0.08,0.51,21.83,0
0.41,0.3,9.72,-0.06,0.0,0.42,21.83,0
0.49,0.86,9.18,0.11,0.03,0.37,21.83,0
0.09,1.02,9.03,0.02,0.04,0.39,21.83,0
0.09,1.05,9.03,-0.09,0.06,0.4,21.83,0
0.01,0.63,9.26,-0.15,0.04,0.33,21.82,0
-0.56,1.42,8.97,-0.05,-0.01,0.28,21.83,0
-0.24,1.89,9.29,0.09,-0.02,-0.07,21.84,0
-0.45,1.45,9.22,0.16,0.01,-0.33,21.83,0
0.03,1.38,9.3,0.23,-0.09,-0.33,21.83,0
-0.81,0.87,8.9,-0.03,-0.04,-0.55,21.84,0
-0.08,0.29,8.95,-0.06,-0.24,-0.53,21.84,0
0.45,-0.02,9.71,-0.04,-0.23,-0.59,21.84,0
0.14,0.08,9.05,-0.0,-0.23,-0.43,21.84,0
0.57,-0.61,8.94,-0.12,-0.24,-0.31,21.83,0
0.72,-0.77,9.3,-0.07,-0.2,-0.16,21.83,0
1.35,-0.9,9.44,0.05,-0.2,-0.05,21.83,0
1.3,-1.49,9.63,0.01,-0.05,-0.03,21.84,0
1.6,-1.1,9.57,0.1,0.05,0.07,21.84,0
0.53,-0.79,9.02,0.07,0.14,0.32,21.85,0
0.63,0.06,9.12,0.05,0.16,0.56,21.84,0
0.38,0.56,9.49,-0.04,0.03,0.56,21.84,0
0.4,0.49,9.33,0.03,-0.02,0.49,21.84,0
0.29,0.93,9.17,0.01,-0.02,0.43,21.84,0
0.2,1.39,9.13,-0.11,0.02,0.41,21.83,0
0.01,1.85,9.12,-0.06,0.05,0.27,21.84,0
-0.08,1.91,9.06,0.14,-0.0,-0.13,21.84,0
-0.11,1.34,9.14,0.11,0.0,-0.46,21.84,0
-0.03,1.28,9.02,0.23,-0.09,-0.48,21.84,0
-0.15,0.71,9.19,0.11,-0.13,-0.53,21.84,0
0.03,0.58,9.34,0.13,-0.17,-0.52,21.84,0
-0.06,0.43,9.08,0.06,-0.19,-0.42,21.84,0
0.49,0.24,9.22,0.01,-0.23,-0.24,21.84,0
0.61,-0.39,9.47,-0.1,-0.17,-0.12,21.84,0
1.11,-0.4,9.25,0.13,-0.24,-0.01,21.85,0
1.22,-0.33,9.73,0.01,-0.15,-0.03,21.84,0
0.81,-0.85,9.59,-0.0,-0.0,0.02,21.85,0
1.31,-0.64,9.68,0.05,0.07,-0.02,21.84,0
0.82,-0.3,9.25,0.0,0.18,0.15,21.85,0
0.34,-0.03,9.1,0.0,0.13,0.33,21.84,0
0.22,0.22,9.23,-0.12,0.11,0.41,21.84,0
0.2,1.0,9.01,-0.01,0.07,0.65,21.84,0
0.17,1.85,8.97,0.11,-0.04,0.53,21.84,0
0.21,2.1,9.09,-0.05,0.01,0.42,21.85,0
-0.06,1.99,9.12,-0.07,0.02,0.32,21.85,0
0.03,2.48,9.08,0.07,-0.01,0.0,21.85,0
-0.32,2.05,9.17,0.05,-0.06,-0.32,21.84,0
0.08,1.45,9.33,0.14,-0.08,-0.53,21.85,0
-0.13,1.32,8.99,0.07,0.01,-0.52,21.85,0
0.35,1.03,8.97,-0.0,-0.2,-0.58,21.84,0
-0.15,-0.22,9.23,0.14,-0.27,-0.52,21.85,0
0.43,0.58,9.04,0.12,-0.24,-0.31,21.85,0
0.22,0.43,9.54,-0.09,-0.06,-0.22,21.85,0
0.9,0.6,9.19,-0.05,-0.12,-0.23,21.85,0
0.72,-0.25,9.27,0.03,-0.19,-0.19,21.85,0
0.98,-0.68,9.52,-0.02,-0.1,-0.1,21.86,0
0.95,-0.48,9.62,0.05,-0.05,0.06,21.85,0
0.75,-0.18,9.38,-0.03,0.12,0.18,21.86,0
0.7,0.12,9.16,-0.08,0.15,0.26,21.86,0
-0.05,0.28,9.19,-0.02,0.03,0.44,21.86,0
0.51,1.57,9.08,-0.04,0.0,0.55,21.86,0
0.1,0.73,9.46,-0.11,0.1,0.53,21.86,0
0.15,1.09,9.26,0.1,0.07,0.56,21.86,0
0.01,1.98,8.98,0.01,0.12,0.58,21.85,0
-0.26,2.6,8.74,-0.2,0.05,0.25,21.84,0
-0.28,1.97,9.34,-0.01,0.04,-0.11,21.85,0
-0.2,1.99,8.98,0.07,-0.01,-0.31,21.85,0
-0.46,1.29,9.12,0.15,-0.02,-0.49,21.85,0
-0.51,0.67,8.79,-0.07,-0.17,-0.51,21.85,0
-0.16,-0.07,9.19,-0.11,-0.21,-0.39,21.87,0
0.25,0.06,9.39,0.22,-0.26,-0.11,21.86,0
0.04,0.28,9.23,-0.02,-0.13,-0.08,21.86,0
0.57,0.18,9.5,-0.07,-0.21,-0.02,21.85,0
1.1,0.0,9.17,-0.03,-0.13,-0.1,21.86,0
0.74,-1.09,9.22,-0.02,-0.07,-0.19,21.85,0
1.0,-0.06,9.54,0.15,-0.19,-0.12,21.86,0
0.86,-0.36,9.53,-0.02,0.03,-0.01,21.87,0
0.4,-0.11,9.4,0.07,0.03,0.11,21.87,0
0.71,0.38,9.31,-0.05,0.13,0.19,21.87,0
0.08,0.27,8.92,-0.01,0.07,0.4,21.88,0
0.16,0.65,9.15,-0.01,0.0,0.46,21.86,0
0.03,1.11,9.17,0.05,0.02,0.52,21.86,0
-0.05,1.62,8.83,-0.06,0.01,0.37,21.86,0
-0.16,1.32,9.16,-0.13,-0.06,0.21,21.87,0
-0.17,1.59,9.24,0.1,-0.05,0.05,21.86,0
-0.23,1.47,9.19,0.07,0.07,-0.19,21.86,0
-0.51,1.07,9.05,0.17,0.05,-0.31,21.88,0
-0.44,1.0,8.88,0.07,-0.12,-0.49,21.87,0
0.05,0.71,9.5,0.1,-0.25,-0.44,21.87,0
0.19,0.64,9.44,0.07,-0.17,-0.41,21.87,0
0.12,0.52,9.12,0.1,-0.22,-0.36,21.86,0
0.15,0.52,9.06,0.06,-0.22,-0.19,21.86,0
0.75,0.58,9.49,-0.03,-0.2,-0.12,21.87,0
1.16,0.1,9.58,-0.08,-0.08,-0.09,21.87,0
1.1,-0.67,9.02,0.0,-0.07,-0.11,21.87,0
0.47,-0.81,9.17,0.03,-0.07,-0.0,21.88,0
0.87,-0.42,9.57,-0.11,0.09,0.04,21.88,0
0.78,-0.36,9.35,-0.01,0.08,0.25,21.88,0
0.33,0.3,9.09,0.03,0.12,0.48,21.88,0
0.01,0.94,9.35,-0.1,0.18,0.56,21.88,0
0.03,0.58,9.23,-0.07,0.08,0.51,21.87,0
-0.08,0.99,9.0,-0.11,0.09,0.58,21.87,0
-0.08,1.33,9.02,-0.09,-0.09,0.53,21.87,0
-0.38,1.44,9.15,-0.17,-0.03,0.41,21.87,0
-0.35,2.41,9.29,0.05,0.02,0.05,21.88,0
-0.57,1.81,8.68,0.27,0.02,-0.29,21.87,0
-0.3,1.3,9.36,0.03,-0.15,-0.42,21.88,0
-0.18,0.71,9.45,0.14,-0.25,-0.48,21.88,0
0.57,0.54,9.35,0.09,-0.19,-0.5,21.88,0
0.3,0.12,9.42,0.04,-0.11,-0.44,21.89,0
0.33,0.36,9.09,-0.01,-0.14,-0.34,21.88,0
0.57,0.57,9.11,-0.03,-0.16,-0.4,21.88,0
0.37,0.26,9.32,-0.07,-0.14,-0.33,21.88,0
0.61,0.37,9.31,-0.1,-0.14,-0.21,21.88,0
0.82,-0.69,9.41,-0.03,-0.11,-0.12,21.88,0
0.56,-0.82,8.81,0.1,-0.07,-0.07,21.88,0
0.82,-1.41,9.48,-0.01,0.06,0.1,21.87,0
0.35,-1.52,9.28,-0.04,0.22,0.28,21.88,0
0.7,0.26,9.22,0.11,0.16,0.62,21.87,0
0.02,0.91,9.29,0.06,0.24,0.67,21.87,0
0.31,1.07,9.21,-0.07,0.2,0.6,21.87,0
-0.28,1.29,8.98,-0.24,0.22,0.63,21.89,0
-0.14,1.63,8.94,-0.21,0.01,0.59,21.88,0
-0.52,1.76,9.02,-0.05,-0.01,0.36,21.88,0
-0.43,2.35,9.25,0.09,0.0,0.01,21.89,0
-0.41,2.04,8.95,0.02,0.04,-0.32,21.88,0
-0.39,2.07,8.82,0.11,-0.1,-0.6,21.88,0
-0.47,0.96,9.33,-0.07,-0.18,-0.63,21.89,0
0.11,0.58,9.37,0.04,-0.14,-0.57,21.89,0
0.52,0.36,9.25,-0.11,-0.16,-0.43,21.89,0
0.16,-0.17,9.42,-0.14,-0.07,-0.35,21.88,0
0.43,-0.43,9.14,-0.03,0.01,-0.33,21.88,0
0.47,-0.43,8.62,0.14,-0.27,-0.26,21.89,0
0.67,-1.4,9.63,0.03,-0.14,-0.09,21.89,0
0.52,-0.93,9.54,0.03,-0.02,0.08,21.89,0
0.7,-0.85,9.39,0.0,0.08,0.1,21.89,0
0.43,-0.68,9.19,0.06,0.08,0.29,21.89,0
0.33,-0.09,9.45,0.12,0.08,0.57,21.89,0
0.18,0.98,9.27,0.0,0.12,0.68,21.89,0
-0.15,1.17,9.05,-0.13,0.18,0.73,21.9,0
-0.51,0.98,9.09,-0.13,0.11,0.64,21.89,0
-0.82,1.29,8.76,-0.13,-0.04,0.53,21.89,0
-0.6,1.59,9.36,-0.1,-0.04,0.42,21.89,0
-0.46,2.27,9.2,-0.03,0.03,0.14,21.89,0
-0.65,1.91,8.84,0.04,0.05,-0.26,21.89,0
-0.78,1.82,8.8,0.23,-0.04,-0.43,21.9,0
-0.2,1.48,9.29,0.18,-0.19,-0.74,21.9,0
-0.2,0.63,9.17,0.09,-0.23,-0.66,21.9,0
0.01,0.12,8.97,0.05,-0.2,-0.55,21.89,0
-0.25,0.06,9.47,-0.03,-0.2,-0.29,21.89,0
0.24,0.26,9.6,0.03,-0.17,-0.22,21.9,0
0.52,0.29,9.36,-0.03,-0.12,-0.18,21.89,0
0.27,-0.28,9.05,-0.02,-0.11,-0.11,21.9,0
0.83,-0.74,9.28,-0.02,-0.11,-0.08,21.9,0
0.69,-0.4,9.92,0.13,-0.08,0.03,21.91,0
-0.02,-0.7,9.6,-0.06,0.16,0.1,21.91,0
0.19,-0.32,9.11,-0.01,0.13,0.3,21.89,0
0.17,0.32,8.95,-0.06,0.03,0.43,21.9,0
-0.28,0.37,9.4,-0.08,0.01,0.6,21.9,0
-0.07,0.92,9.42,-0.05,0.05,0.67,21.89,0
-0.09,1.19,9.07,-0.13,0.14,0.63,21.89,0
-0.52,1.59,8.67,-0.14,0.07,0.56,21.89,0
-0.57,1.81,9.06,-0.07,-0.03,0.32,21.9,0
-0.42,2.48,9.02,0.13,-0.06,-0.06,21.89,0
-0.51,1.83,9.49,0.19,0.02,-0.41,21.89,0
-0.44,1.96,8.71,0.24,-0.07,-0.63,21.9,0
-0.69,0.53,9.24,0.0,-0.17,-0.6,21.91,0
0.01,0.41,9.34,0.02,-0.21,-0.51,21.9,0
-0.42,0.1,9.1,-0.0,-0.17,-0.38,21.9,0
-0.28,0.25,9.2,0.05,-0.12,-0.23,21.9,0
0.04,0.26,9.39,0.01,-0.12,-0.14,21.9,0
0.28,0.42,9.4,0.04,-0.17,-0.11,21.9,0
0.39,0.33,9.22,0.01,-0.09,-0.13,21.9,0
0.42,-0.34,9.09,0.01,-0.13,-0.07,21.9,0
0.15,-0.96,9.56,-0.03,-0.02,0.02,21.91,0
0.4,-0.59,9.23,-0.19,0.15,0.04,21.9,0
0.56,-0.18,9.18,-0.19,0.11,0.18,21.88,0
-0.16,-0.04,9.14,-0.16,0.04,0.42,21.89,0
0.19,0.64,9.35,-0.01,-0.07,0.51,21.9,0
-0.02,0.32,9.45,0.02,0.02,0.53,21.9,0
-0.2,0.88,9.22,0.07,-0.03,0.58,21.9,0
-0.08,1.2,8.98,-0.06,0.01,0.45,21.9,0
-0.25,1.32,9.04,-0.09,-0.07,0.39,21.91,0
-0.19,1.66,9.26,-0.04,-0.01,0.17,21.91,0
-0.33,1.96,9.1,0.03,0.03,-0.04,21.9,0
-0.75,1.05,9.22,0.15,0.07,-0.14,21.9,0
-0.54,0.9,9.22,0.06,0.04,-0.55,21.92,0
-0.63,0.1,9.12,0.04,-0.04,-0.54,21.91,0
-1.18,-0.72,9.31,0.06,-0.16,-0.55,21.91,0
0.21,0.28,9.42,0.08,-0.16,-0.51,21.92,0
-0.2,-0.16,9.19,0.03,-0.11,-0.42,21.91,0
-0.6,-0.38,8.81,-0.12,0.06,-0.26,21.92,0
-0.18,-0.87,9.23,-0.03,-0.09,-0.19,21.92,0
0.12,-0.81,9.31,-0.0,-0.21,-0.13,21.91,0
0.27,-1.13,9.43,0.04,-0.1,-0.11,21.92,0
0.84,-0.59,9.79,0.28,-0.09,0.04,21.91,0
0.2,-0.42,9.16,0.1,0.14,0.1,21.91,0
-0.18,-0.3,9.17,0.01,0.2,0.24,21.9,0
-0.31,0.57,8.87,0.14,0.01,0.4,21.92,0
-0.22,0.85,9.08,0.13,-0.1,0.58,21.92,0
-0.14,0.73,9.39,-0.08,-0.04,0.55,21.91,0
0.0,1.33,9.21,-0.07,0.01,0.55,21.92,0
-0.09,2.14,8.85,-0.19,-0.02,0.58,21.91,0
-0.24,1.81,9.5,-0.1,-0.05,0.28,21.91,0
0.03,2.52,9.18,0.1,0.07,-0.04,21.91,0
-0.23,1.85,9.09,0.06,0.11,-0.34,21.91,0
-0.35,1.29,8.83,0.04,0.07,-0.44,21.92,0
-0.45,0.79,9.07,0.18,-0.22,-0.43,21.92,0
-0.5,0.45,9.5,0.06,-0.12,-0.54,21.92,0
-0.27,0.24,9.51,0.11,-0.12,-0.45,21.92,0
-0.02,0.14,9.05,0.0,-0.17,-0.28,21.92,0
0.12,0.49,9.08,-0.02,-0.2,-0.33,21.91,0
0.07,0.33,9.13,-0.01,-0.24,-0.27,21.91,0
0.64,-0.67,9.22,-0.08,-0.32,-0.06,21.91,0
0.41,-1.6,9.78,-0.01,-0.07,0.0,21.92,0
1.17,-0.59,9.67,0.01,0.04,0.05,21.92,0
-0.03,-0.84,9.36,0.04,0.14,0.06,21.92,0
-0.19,0.34,8.85,0.05,0.02,0.27,21.92,0
0.08,0.8,9.21,-0.02,-0.0,0.27,21.92,0
-0.05,0.74,9.35,-0.11,0.16,0.28,21.92,0
-0.43,0.43,9.34,-0.07,0.2,0.55,21.92,0
-0.52,1.22,8.86,-0.04,0.06,0.61,21.92,0
-0.24,1.31,9.0,-0.19,-0.03,0.46,21.92,0
-0.54,1.96,9.31,-0.13,0.0,0.35,21.92,0
-0.45,2.39,9.15,0.07,0.07,-0.04,21.92,0
-0.72,1.54,8.98,0.17,-0.08,-0.22,21.92,0
-0.37,1.7,9.01,0.2,-0.07,-0.47,21.93,0
-0.47,0.71,9.09,-0.06,-0.05,-0.55,21.94,0
-0.51,0.08,8.94,0.09,-0.19,-0.54,21.93,0
-0.64,-0.39,9.47,0.08,-0.22,-0.38,21.93,0
-0.0,0.73,9.39,0.05,-0.07,-0.2,21.93,0
-0.04,0.7,9.02,0.1,-0.21,-0.2,21.92,0
0.32,0.35,9.23,-0.06,-0.12,-0.15,21.93,0
0.5,-0.5,9.26,0.01,-0.07,-0.08,21.94,0
0.25,-0.71,9.19,-0.03,-0.08,-0.03,21.94,0
0.73,-0.1,9.78,-0.15,0.08,0.04,21.93,0
0.37,-0.25,9.33,-0.12,0.11,0.17,21.93,0
-0.07,-0.06,9.12,-0.2,0.04,0.38,21.94,0
0.09,0.66,9.13,-0.07,0.01,0.55,21.94,0
-0.13,0.6,9.5,0.01,0.03,0.43,21.94,0
-0.09,0.84,9.15,-0.07,0.02,0.45,21.94,0
-0.06,0.79,9.26,-0.18,0.0,0.46,21.93,0
-0.28,0.69,8.98,-0.06,-0.06,0.39,21.93,0
-0.33,1.34,9.05,-0.04,0.01,0.49,21.93,0
-0.46,1.86,9.2,0.02,0.02,0.22,21.92,0
-0.53,1.63,9.01,0.01,0.03,-0.18,21.93,0
-0.49,1.36,9.31,0.25,0.01,-0.47,21.94,0
-0.25,0.73,9.41,0.06,0.01,-0.8,21.94,0
-0.38,-0.02,9.11,-0.01,-0.01,-0.61,21.93,0
-0.53,-0.46,9.26,-0.08,-0.11,-0.49,21.93,0
-0.3,-0.22,9.22,0.11,-0.2,-0.25,21.93,0
-0.12,-0.07,9.06,0.0,-0.29,-0.23,21.93,0
0.49,-0.56,9.51,-0.07,-0.22,-0.15,21.94,0
0.54,-1.26,9.4,-0.05,-0.07,-0.1,21.93,0
0.23,-1.11,9.22,0.04,-0.07,-0.03,21.93,0
0.22,-1.0,9.4,-0.05,0.09,0.06,21.93,0
-0.21,-0.9,8.93,-0.08,0.12,0.16,21.93,0
-0.01,-0.28,9.22,0.05,-0.08,0.31,21.93,0
-0.01,0.15,9.1,-0.01,0.06,0.5,21.94,0
-0.25,0.36,9.33,-0.01,0.04,0.51,21.93,0
-0.08,0.71,9.3,-0.01,0.06,0.52,21.93,0
-0.39,0.85,8.95,-0.18,0.04,0.52,21.94,0
-0.43,0.77,9.23,-0.16,-0.03,0.42,21.94,0
-0.61,1.67,9.23,-0.03,0.01,0.17,21.94,0
-0.56,1.55,9.03,0.09,0.07,-0.1,21.94,0
-0.92,0.4,8.89,0.09,-0.05,-0.4,21.94,0
-0.29,0.49,9.47,0.01,-0.18,-0.4,21.93,0
-0.52,0.33,9.39,0.13,-0.0,-0.45,21.94,0
-0.39,0.25,9.05,0.11,-0.05,-0.45,21.94,0
-0.2,-0.0,9.22,0.08,-0.08,-0.46,21.94,0
-0.28,0.3,9.17,0.02,-0.13,-0.41,21.95,0
-0.14,-0.25,8.97,0.02,-0.16,-0.26,21.94,0
0.17,-0.39,9.35,-0.13,-0.27,-0.23,21.95,0
0.64,-0.43,9.31,-0.05,-0.32,-0.13,21.95,0
0.9,-0.94,9.34,0.04,-0.17,-0.11,21.95,0
0.67,-1.35,10.05,0.06,-0.13,-0.07,21.94,0
1.29,-1.07,9.82,0.14,0.1,-0.03,21.94,0
0.67,-0.89,9.01,0.22,0.1,0.12,21.94,0
-0.03,-0.09,8.6,0.13,0.07,0.28,21.95,0
0.35,0.39,9.24,0.03,0.11,0.42,21.94,0
-0.06,0.64,9.42,-0.03,0.07,0.59,21.94,0
0.18,0.85,9.26,0.06,-0.01,0.67,21.95,0
0.04,2.04,8.99,-0.17,0.01,0.72,21.94,0
-0.17,2.3,9.05,-0.29,0.04,0.32,21.94,0
-0.53,2.13,9.08,0.13,0.02,-0.06,21.94,0
-0.72,1.42,9.37,0.12,-0.03,-0.45,21.95,0
-0.66,1.09,9.22,0.2,0.09,-0.59,21.95,0
-0.3,0.59,9.28,0.12,-0.19,-0.66,21.95,0
-0.17,-0.5,9.5,0.06,-0.12,-0.69,21.96,0
-0.21,-0.07,9.2,0.07,-0.19,-0.42,21.95,0
-0.02,0.13,9.07,-0.02,-0.24,-0.23,21.95,0
0.77,-0.03,9.19,-0.02,-0.25,-0.14,21.95,0
0.69,-1.09,9.34,-0.1,-0.13,-0.15,21.95,0
0.61,-1.06,9.49,-0.03,-0.05,-0.02,21.96,0
0.56,-0.62,9.44,-0.05,0.09,0.07,21.95,0
0.64,-0.55,9.17,-0.0,0.11,0.17,21.95,0
-0.03,-0.08,9.17,0.04,-0.04,0.28,21.95,0
0.66,0.33,9.42,0.04,0.03,0.24,21.95,0
-0.38,0.65,8.84,0.05,0.03,0.41,21.95,0
-0.05,0.33,9.31,-0.06,-0.07,0.54,21.94,0
-0.06,0.8,9.18,0.06,-0.02,0.56,21.95,0
-0.05,1.77,9.03,-0.09,0.02,0.52,21.95,0
-0.18,1.29,9.17,-0.2,0.03,0.26,21.96,0
-0.1,2.33,9.12,0.1,0.02,0.08,21.96,0
-0.57,1.69,9.14,0.15,0.08,-0.25,21.96,0
-0.47,0.96,9.14,0.17,0.01,-0.51,21.97,0
-0.75,0.41,9.08,0.13,-0.09,-0.55,21.96,0
-0.4,0.21,9.41,-0.01,-0.19,-0.54,21.96,0
-0.18,0.01,9.46,-0.07,-0.1,-0.43,21.96,0
-0.2,0.04,9.18,0.05,-0.19,-0.3,21.96,0
0.25,0.04,9.01,-0.04,-0.18,-0.27,21.95,0
0.24,-1.1,9.11,-0.05,-0.16,-0.16,21.95,0
0.45,-1.04,9.39,-0.07,-0.08,-0.06,21.97,0
0.55,-0.98,9.35,0.01,-0.13,0.02,21.95,0
0.38,-0.9,9.14,0.01,-0.03,0.16,21.95,0
0.02,-0.76,9.46,-0.04,0.07,0.39,21.95,0
0.82,0.76,9.25,0.1,-0.1,0.46,21.96,0
0.57,0.12,9.22,-0.04,0.05,0.41,21.95,0
0.49,0.43,9.4,0.18,-0.02,0.63,21.95,0
0.12,1.39,9.04,0.14,-0.05,0.61,21.97,0
0.24,1.87,9.05,-0.01,-0.02,0.57,21.96,0
0.18,2.11,9.19,-0.01,-0.0,0.27,21.96,0
0.07,2.62,9.34,0.1,0.09,-0.02,21.95,0
-0.48,1.97,9.05,0.07,0.14,-0.34,21.96,0
-0.19,1.07,8.91,-0.0,0.03,-0.66,21.96,0
-0.4,0.36,9.31,0.01,-0.12,-0.57,21.97,0
-0.25,0.05,9.23,-0.07,-0.08,-0.6,21.97,0
-0.71,-0.49,9.25,0.02,-0.22,-0.42,21.97,0
-0.25,-0.43,8.97,-0.07,-0.11,-0.2,21.96,0
0.05,-0.48,8.96,0.07,-0.33,-0.09,21.96,0
0.79,-0.59,9.61,0.07,-0.28,-0.22,21.97,0
1.01,-1.05,9.59,-0.01,-0.13,-0.17,21.96,0
0.3,-1.08,9.48,0.16,-0.08,-0.01,21.97,0
0.66,-0.6,9.22,0.06,0.17,0.04,21.97,0
0.06,-0.35,9.39,0.02,0.18,0.25,21.95,0
-0.07,-0.23,9.3,0.01,0.2,0.46,21.96,0
0.1,1.1,8.99,0.01,0.08,0.57,21.96,0
-0.04,0.83,9.22,-0.18,0.09,0.62,21.96,0
-0.02,1.06,9.17,-0.07,0.15,0.68,21.96,0
-0.2,1.64,8.94,-0.12,0.06,0.57,21.96,0
-0.36,1.96,8.94,-0.19,0.04,0.41,21.96,0
-0.74,1.77,9.28,0.01,-0.05,0.06,21.96,0
-0.68,1.65,9.18,0.07,-0.02,-0.3,21.97,0
-0.83,1.13,9.05,0.14,0.02,-0.49,21.98,0
-0.43,1.48,9.17,0.27,-0.17,-0.52,21.97,0
-0.19,1.1,9.09,-0.03,-0.19,-0.67,21.97,0
-0.09,0.42,9.35,0.04,-0.23,-0.62,21.97,0
-0.32,-0.06,9.03,-0.17,-0.13,-0.42,21.97,0
-0.24,-0.0,8.94,-0.05,-0.18,-0.3,21.98,0
0.22,0.01,9.15,0.09,-0.24,-0.09,21.97,0
1.01,-0.76,9.37,0.01,-0.17,-0.12,21.96,0
0.56,-1.32,9.6,-0.03,-0.03,-0.11,21.97,0
0.84,-0.36,9.28,0.04,-0.11,0.06,21.98,0
0.43,-0.25,9.49,0.13,-0.12,0.19,21.97,0
0.29,-0.01,9.44,0.08,0.05,0.35,21.97,0
0.4,0.91,9.19,-0.04,0.11,0.42,21.97,0
0.08,0.49,9.15,-0.13,0.2,0.51,21.97,0
-0.15,0.87,9.21,0.06,0.07,0.61,21.96,0
-0.15,1.06,9.03,-0.0,-0.03,0.46,21.97,0
-0.18,0.94,9.15,-0.21,0.05,0.34,21.97,0
-0.4,1.25,9.02,-0.13,-0.03,0.43,21.98,0
-0.32,1.96,9.2,0.07,-0.04,0.2,21.98,0
-0.31,2.32,9.26,0.09,0.04,-0.19,21.96,0
-0.57,1.34,9.4,0.23,-0.02,-0.62,21.96,0
-0.46,0.99,8.83,0.13,-0.14,-0.77,21.98,0
-0.15,0.13,9.15,-0.03,-0.16,-0.59,21.97,0
0.07,-0.06,9.59,0.01,-0.16,-0.51,21.97,0
-0.2,0.33,9.24,0.11,-0.17,-0.44,21.98,0
0.21,0.24,9.4,0.09,-0.13,-0.24,21.98,0
0.37,0.68,9.45,-0.01,-0.12,-0.18,21.98,0
0.59,0.1,9.21,-0.1,0.0,-0.08,21.98,0
0.68,-0.4,9.23,-0.04,-0.16,-0.1,21.97,0
0.36,-1.4,9.4,-0.0,-0.02,-0.03,21.98,0
0.79,-0.77,9.14,-0.05,0.08,0.12,21.99,0
0.34,-0.38,9.38,-0.02,0.02,0.31,21.98,0
0.4,0.36,9.63,-0.04,0.1,0.42,21.97,0
0.22,0.26,9.28,-0.16,0.19,0.4,21.97,0
-0.11,0.36,9.07,-0.07,0.1,0.66,21.97,0
0.12,1.31,8.93,-0.1,0.04,0.67,21.98,0
-0.12,1.48,8.97,-0.11,0.03,0.69,21.98,0
-0.31,2.06,9.08,-0.05,-0.07,0.53,21.99,0
-0.17,2.3,9.27,-0.04,-0.03,0.21,21.97,0
-0.15,2.96,8.99,-0.01,0.03,-0.11,21.98,0
-0.0,1.93,9.33,0.19,-0.06,-0.45,21.98,0
-0.19,1.09,8.95,0.03,-0.08,-0.61,21.98,0
-0.06,-0.02,9.37,0.26,-0.27,-0.51,22.0,0
0.47,0.88,9.26,0.1,-0.17,-0.63,21.99,0
0.56,0.67,9.24,-0.03,-0.08,-0.52,21.99,0
-0.16,-0.28,9.13,-0.21,-0.06,-0.4,21.98,0
0.41,0.01,9.22,-0.1,-0.11,-0.29,21.99,0
0.1,-0.75,9.25,-0.06,-0.17,-0.21,21.99,0
0.8,-1.48,9.67,-0.03,-0.03,-0.17,21.98,0
0.43,-1.21,9.41,0.01,-0.02,0.05,21.99,0
0.18,-0.84,9.36,0.05,0.01,0.12,21.99,0
0.65,-0.2,9.72,0.1,0.08,0.28,21.99,0
0.16,0.69,8.89,0.08,0.11,0.41,21.99,0
-0.42,0.68,8.76,-0.11,0.05,0.57,21.98,0
0.18,0.72,9.25,-0.18,0.1,0.69,21.99,0
-0.06,0.77,9.05,-0.06,0.12,0.68,21.98,0
-0.25,1.77,8.81,-0.05,0.0,0.62,21.99,0
-0.2,2.58,9.46,-0.06,-0.07,0.39,21.99,0
-0.04,2.98,9.16,0.02,0.08,-0.13,21.99,0
-0.33,1.96,9.06,0.1,0.07,-0.48,21.98,0
-0.32,1.4,9.03,0.18,-0.1,-0.73,21.99,0
-0.76,0.62,8.9,0.03,-0.11,-0.73,21.99,0
-0.24,0.17,8.71,-0.0,-0.23,-0.65,21.99,0
0.03,0.05,9.37,0.02,-0.29,-0.4,21.99,0
-0.14,-0.3,9.46,-0.02,-0.2,-0.2,21.99,0
0.53,0.09,9.19,0.1,-0.26,-0.31,22.01,0
1.03,-1.01,9.4,-0.01,-0.24,-0.28,22.0,0
0.92,-1.17,9.43,0.08,-0.14,-0.11,21.99,0
-1.18,0.34,9.7,0.09,-0.13,0.02,22.66,1
-1.52,1.23,10.14,0.07,-0.14,0.06,22.65,1
-1.7,1.31,9.95,-0.09,0.08,0.06,22.66,1
-1.38,1.22,9.79,-0.15,0.14,-0.06,22.67,1
-0.96,1.18,10.49,0.2,0.07,-0.11,22.67,1
-1.59,0.51,8.41,-0.08,0.31,0.02,22.67,1
-2.12,0.29,8.43,-0.07,0.11,0.08,22.66,1
-1.85,0.5,8.17,-0.04,-0.04,0.08,22.67,1
-0.93,0.47,7.49,-0.13,0.08,0.07,22.67,1
-1.79,0.76,6.91,0.1,-0.14,-0.09,22.67,1
-1.1,0.77,7.77,-0.08,-0.22,0.07,22.67,1
-1.54,1.07,8.77,0.18,-0.42,-0.05,22.67,1
-0.58,1.7,10.12,-0.15,-0.31,0.17,22.67,1
-0.37,0.98,9.08,-0.14,-0.18,0.17,22.68,1
-0.17,0.79,9.6,-0.17,-0.35,-0.03,22.68,1
-0.08,0.43,10.37,-0.06,-0.38,0.01,22.68,1
-0.32,0.6,10.7,0.01,-0.14,-0.05,22.69,1
-0.66,0.12,10.73,0.01,0.01,-0.07,22.69,1
0.07,0.36,10.61,0.05,0.17,0.08,22.7,1
-0.23,0.31,9.8,0.24,0.32,-0.05,22.69,1
-0.43,0.8,8.78,0.13,0.29,-0.12,22.69,1
-0.9,0.54,8.54,0.09,0.11,-0.04,22.69,1
-1.13,0.61,8.04,-0.09,0.04,-0.01,22.69,1
-0.75,0.19,8.13,0.01,0.01,-0.02,22.68,1
-0.8,0.46,6.79,0.03,0.08,-0.14,22.68,1
-1.15,0.62,7.72,0.15,-0.27,-0.08,22.68,1
-0.9,0.44,8.32,0.14,-0.27,-0.02,22.68,1
-1.05,-0.01,8.6,0.03,-0.25,0.07,22.69,1
-1.02,0.61,9.72,-0.02,-0.26,-0.07,22.68,1
-0.53,0.11,9.83,-0.11,-0.24,-0.03,22.68,1
-0.09,0.02,9.03,-0.05,-0.3,0.12,22.67,1
-0.62,-0.2,10.66,-0.02,-0.49,-0.08,22.68,1
0.13,-0.68,11.59,0.06,-0.17,-0.05,22.7,1
-0.19,-0.16,10.91,-0.01,0.17,-0.01,22.69,1
-0.22,-0.55,10.02,-0.03,0.25,-0.03,22.7,1
-0.03,0.45,9.12,0.17,0.38,0.02,22.69,1
-0.86,0.23,9.01,-0.0,0.37,-0.11,22.69,1
-1.07,-0.12,8.32,-0.03,0.26,-0.08,22.68,1
-1.7,0.09,8.2,0.05,-0.02,-0.09,22.69,1
-0.87,0.22,7.68,-0.0,-0.04,-0.03,22.69,1
-1.38,0.06,6.95,0.11,-0.03,-0.09,22.69,1
-1.27,0.81,7.69,0.12,-0.26,-0.11,22.68,1
-0.97,0.48,8.61,-0.09,-0.27,-0.1,22.68,1
-0.33,-0.22,9.54,-0.15,-0.24,0.04,22.69,1
-0.6,0.2,9.85,-0.12,-0.08,0.29,22.69,1
-0.48,0.48,9.74,-0.29,-0.08,0.25,22.7,1
-0.23,0.14,9.27,0.1,-0.36,0.04,22.7,1
-0.55,-0.05,10.33,-0.02,-0.4,-0.05,22.69,1
-0.31,-0.33,11.36,0.12,-0.17,-0.09,22.7,1
-0.07,-0.1,10.56,0.08,0.16,-0.01,22.71,1
-0.19,-0.33,10.23,0.14,0.11,0.04,22.7,1
-0.56,0.38,9.59,0.04,0.4,0.03,22.7,1
-1.09,0.44,8.88,0.13,0.28,-0.11,22.7,1
-1.1,0.48,8.26,0.09,0.21,-0.08,22.69,1
-1.57,0.34,7.89,-0.02,0.13,0.04,22.68,1
-1.1,0.05,7.51,-0.09,0.06,0.02,22.69,1
-1.75,0.39,7.26,0.04,-0.05,-0.05,22.69,1
-1.21,0.82,8.16,-0.02,-0.19,-0.05,22.69,1
-1.08,0.35,8.29,-0.06,-0.1,-0.18,22.68,1
-1.11,0.76,9.35,-0.1,-0.18,0.1,22.69,1
-0.6,0.49,9.76,0.0,-0.25,0.17,22.69,1
-0.36,0.76,9.54,0.04,-0.29,0.26,22.69,1
-0.53,0.84,9.45,0.02,-0.24,0.14,22.69,1
-0.74,0.81,10.1,-0.09,-0.38,-0.08,22.69,1
-0.09,0.13,11.18,0.12,-0.25,-0.05,22.7,1
-0.16,0.04,10.65,0.08,-0.03,-0.12,22.69,1
-0.39,-0.23,9.62,0.13,0.15,-0.07,22.69,1
-0.26,0.29,9.61,-0.02,0.23,-0.09,22.69,1
-0.28,0.54,9.06,-0.02,0.29,-0.04,22.69,1
-0.71,0.57,8.53,-0.1,0.17,-0.09,22.69,1
-0.28,0.56,8.46,-0.01,0.05,-0.15,22.69,1
-0.64,0.33,7.83,0.02,0.25,-0.08,22.69,1
-1.67,-0.08,6.46,0.07,0.05,-0.03,22.69,1
-1.63,0.14,7.21,0.08,-0.13,-0.06,22.69,1
-0.88,0.97,8.83,0.05,-0.04,0.04,22.69,1
-1.45,0.04,9.82,-0.16,-0.26,0.09,22.69,1
-0.82,0.3,9.98,-0.1,-0.28,0.1,22.68,1
-0.35,0.73,8.97,-0.16,-0.22,0.01,22.69,1
-0.41,-0.43,9.7,-0.37,-0.37,0.04,22.69,1
-0.27,-0.45,11.12,-0.07,-0.33,-0.0,22.69,1
0.19,-0.34,11.35,0.06,-0.02,0.04,22.7,1
0.15,0.39,10.35,-0.01,0.21,0.06,22.69,1
-0.22,0.14,10.07,-0.03,0.33,-0.04,22.7,1
0.06,0.05,9.32,0.17,0.29,-0.08,22.69,1
-0.5,0.46,8.71,0.22,0.24,0.03,22.69,1
-1.01,1.05,8.93,0.08,0.15,-0.07,22.68,1
-0.54,0.8,8.17,-0.04,0.12,-0.01,22.68,1
-0.35,0.61,6.85,-0.06,0.15,0.01,22.67,1
-1.41,0.02,7.0,-0.07,-0.01,-0.06,22.67,1
-1.37,0.21,7.95,-0.01,-0.04,-0.11,22.67,1
-1.11,-0.05,8.76,-0.05,0.01,-0.11,22.68,1
-1.9,-0.31,10.21,0.06,-0.39,0.07,22.69,1
-0.97,0.4,9.67,0.05,-0.38,0.09,22.68,1
-0.33,0.47,9.39,-0.06,-0.36,0.06,22.68,1
-0.47,0.04,9.36,-0.04,-0.37,-0.03,22.68,1
-0.19,-0.12,10.07,-0.06,-0.26,-0.02,22.69,1
-0.31,-0.23,10.42,0.02,-0.14,-0.04,22.69,1
-0.14,-0.24,11.0,0.18,-0.03,0.03,22.68,1
0.07,0.04,10.65,0.04,0.26,0.05,22.69,1
-0.62,0.39,9.54,0.16,0.35,-0.08,22.7,1
-0.37,0.78,8.62,0.07,0.28,0.06,22.69,1
-0.99,0.37,8.18,-0.08,0.2,-0.03,22.69,1
-0.92,0.09,8.08,0.06,0.1,-0.12,22.68,1
-0.32,0.19,7.5,-0.01,0.1,-0.0,22.67,1
-1.81,0.21,6.93,0.03,0.06,0.05,22.68,1
-1.69,0.47,7.89,-0.04,-0.16,-0.06,22.68,1
-1.73,-0.12,8.06,-0.18,0.11,0.04,22.67,1
-1.5,-0.24,9.06,-0.33,-0.33,0.21,22.69,1
-0.59,-0.55,9.82,-0.01,-0.53,0.1,22.69,1
-0.44,-0.51,9.7,-0.05,-0.42,0.05,22.69,1
0.28,-0.06,10.26,0.02,-0.47,-0.0,22.68,1
-0.05,-0.05,10.74,-0.09,-0.33,-0.19,22.69,1
0.23,-0.81,11.63,0.12,-0.09,-0.03,22.68,1
0.4,0.39,10.97,0.08,0.3,-0.1,22.69,1
0.28,0.27,10.12,0.12,0.35,-0.13,22.69,1
0.22,0.4,8.67,0.13,0.37,-0.11,22.69,1
-0.26,0.29,8.39,0.17,0.22,0.02,22.68,1
-1.29,0.45,8.1,0.16,0.15,-0.04,22.68,1
-1.05,0.52,8.24,-0.01,0.18,0.04,22.67,1
-0.74,0.45,7.54,0.0,0.1,-0.04,22.68,1
-1.63,0.38,7.55,-0.1,0.03,-0.04,22.69,1
-0.94,0.79,8.25,-0.12,-0.1,-0.06,22.68,1
-1.07,0.7,8.98,-0.08,-0.19,0.07,22.68,1
-1.41,0.02,9.01,-0.34,-0.12,0.29,22.68,1
-0.79,-0.01,9.51,-0.08,-0.49,0.23,22.68,1
-0.33,0.25,9.42,-0.09,-0.42,0.12,22.68,1
-0.46,-0.21,10.09,-0.02,-0.35,-0.03,22.69,1
-1.1,-0.74,10.68,0.04,-0.18,-0.03,22.68,1
-0.26,-0.16,10.57,0.13,-0.02,-0.03,22.69,1
-0.35,-0.22,10.32,0.04,0.13,-0.01,22.69,1
0.21,0.16,10.12,0.06,0.41,-0.05,22.69,1
-0.43,-0.16,9.24,-0.1,0.58,-0.03,22.68,1
-1.4,-0.48,8.5,-0.13,0.47,0.01,22.69,1
-1.24,0.22,8.09,0.03,0.22,0.05,22.69,1
-1.55,-0.3,7.97,-0.07,0.15,0.11,22.68,1
-2.03,-0.09,7.28,0.11,0.1,-0.01,22.68,1
-2.41,-0.19,7.32,-0.0,-0.17,-0.04,22.68,1
-2.08,-0.34,7.87,0.07,-0.36,-0.11,22.68,1
-1.92,-0.74,8.7,-0.13,-0.37,-0.06,22.67,1
-1.55,-0.81,9.09,-0.03,-0.42,-0.02,22.68,1
-1.05,-0.55,9.18,0.01,-0.43,0.02,22.68,1
-0.18,-0.42,9.53,-0.13,-0.39,0.06,22.68,1
-0.04,-0.14,10.45,-0.03,-0.42,0.01,22.68,1
0.13,-0.43,11.02,-0.02,-0.17,-0.04,22.68,1
0.09,-0.27,10.64,0.07,0.05,-0.04,22.68,1
-0.01,-0.04,10.56,0.11,0.17,-0.08,22.68,1
0.01,0.08,9.93,0.06,0.36,0.01,22.68,1
-0.16,0.23,9.12,0.03,0.34,-0.08,22.68,1
-0.9,0.09,8.67,-0.03,0.37,0.06,22.68,1
-1.32,0.25,8.38,-0.05,0.27,0.09,22.69,1
-1.11,0.14,7.83,-0.11,0.17,0.13,22.68,1
-1.44,-0.08,7.13,-0.01,0.12,0.09,22.68,1
-2.13,-0.45,7.56,0.0,-0.17,-0.04,22.68,1
-1.4,-0.43,8.0,0.05,-0.29,-0.07,22.68,1
-1.73,-0.51,9.02,-0.17,-0.16,0.06,22.68,1
-1.77,-0.62,9.39,-0.03,-0.21,-0.01,22.69,1
-1.56,-0.41,8.8,-0.08,-0.3,0.1,22.67,1
-0.98,-0.45,10.13,-0.35,-0.16,0.2,22.69,1
-0.84,-0.13,9.89,0.02,-0.31,-0.09,22.68,1
-0.59,-0.72,11.0,0.01,-0.28,-0.01,22.68,1
-0.51,-0.66,10.67,0.04,0.07,-0.03,22.67,1
-0.19,0.06,10.38,0.06,0.23,0.04,22.68,1
-0.67,-0.19,9.59,0.03,0.31,-0.07,22.69,1
-1.16,-0.02,9.0,-0.01,0.33,-0.03,22.7,1
-1.22,0.09,9.02,0.03,0.18,-0.02,22.69,1
-1.07,0.26,8.54,-0.06,0.22,-0.06,22.7,1
-1.21,-0.18,7.57,0.02,0.23,0.1,22.69,1
-1.85,0.17,7.13,0.05,0.13,0.03,22.68,1
-1.83,0.18,7.43,0.13,-0.09,-0.04,22.67,1
-1.89,0.53,7.45,-0.01,-0.14,-0.13,22.69,1
-1.8,0.3,9.21,-0.25,-0.25,0.07,22.67,1
-1.64,-0.08,9.04,-0.18,-0.25,0.13,22.68,1
-1.39,-0.3,9.06,-0.11,-0.32,0.11,22.69,1
-0.28,0.32,10.54,0.04,-0.42,0.04,22.69,1
-0.89,-0.78,10.68,-0.19,-0.31,-0.04,22.69,1
-0.6,-0.54,10.72,0.0,-0.08,-0.03,22.7,1
-0.63,-0.81,10.89,0.07,-0.01,0.08,22.68,1
-0.04,-0.1,10.55,0.09,0.22,0.12,22.69,1
-0.79,-0.32,9.56,-0.04,0.37,-0.02,22.7,1
-0.96,-0.09,8.71,0.05,0.3,-0.15,22.69,1
-1.13,-0.42,8.76,0.01,0.35,-0.03,22.69,1
-1.42,-0.35,8.38,0.04,0.2,-0.02,22.68,1
-1.76,-0.44,7.86,0.09,0.14,0.04,22.67,1
-1.92,-0.28,7.27,0.02,0.14,-0.01,22.68,1
-2.55,-0.2,7.17,-0.02,-0.02,-0.05,22.68,1
-1.94,0.06,7.39,-0.17,-0.03,0.04,22.67,1
-2.55,0.32,7.97,0.17,-0.19,0.03,22.68,1
-2.16,-0.31,8.71,-0.17,-0.44,-0.11,22.69,1
-1.31,0.35,9.75,0.21,-0.62,0.07,22.67,1
-1.48,-0.86,9.89,0.24,-0.58,0.03,22.69,1
-1.0,-0.96,10.6,-0.17,-0.22,-0.08,22.69,1
-1.78,-0.74,10.56,0.04,-0.2,-0.06,22.68,1
-0.33,-0.2,11.19,0.18,0.03,0.0,22.69,1
-1.36,-0.16,10.2,0.1,0.33,-0.01,22.69,1
-0.97,0.54,9.54,0.31,0.17,-0.22,22.69,1
-1.11,0.14,8.79,0.15,0.19,-0.27,22.69,1
-1.17,0.19,8.71,-0.08,0.3,-0.15,22.69,1
-1.52,0.06,8.17,0.09,0.16,-0.01,22.68,1
-1.75,0.35,7.54,0.06,0.06,0.04,22.68,1
-1.71,0.31,7.46,0.02,0.09,0.02,22.68,1
-2.49,0.29,7.3,-0.03,-0.03,-0.01,22.67,1
-2.26,0.47,7.56,-0.21,-0.24,-0.11,22.68,1
-1.77,0.66,8.54,-0.2,-0.19,0.13,22.68,1
-1.22,0.46,9.19,-0.41,-0.17,0.29,22.68,1
-1.49,-0.27,9.28,-0.03,-0.5,-0.01,22.68,1
-0.65,-0.48,10.77,-0.08,-0.35,0.12,22.69,1
-1.05,-0.13,9.98,0.02,-0.22,0.09,22.69,1
-1.24,-0.48,10.69,0.05,-0.2,0.0,22.69,1
-0.83,-0.4,10.97,0.12,0.05,-0.05,22.69,1
-0.71,-0.19,10.33,0.21,0.14,-0.06,22.69,1
-0.84,-0.07,9.27,0.08,0.23,-0.14,22.69,1
-0.62,0.34,9.08,0.01,0.08,-0.41,22.69,1
-1.05,0.01,8.8,-0.18,0.42,0.14,22.69,1
-1.78,0.12,8.12,0.07,0.23,0.08,22.68,1
-1.82,0.45,7.86,0.22,0.08,-0.05,22.68,1
-2.0,0.17,6.97,-0.01,0.08,-0.02,22.68,1
-2.37,0.11,7.17,-0.02,-0.03,-0.08,22.67,1
-2.14,-0.13,7.94,-0.11,-0.12,-0.12,22.68,1
-2.38,-0.6,8.74,-0.28,-0.22,-0.24,22.68,1
-2.06,-0.07,9.23,0.01,-0.43,0.04,22.68,1
-1.76,-0.3,9.53,-0.16,-0.52,0.08,22.69,1
-0.6,0.19,10.45,-0.18,-0.36,0.19,22.68,1
-1.23,-0.82,10.54,-0.19,-0.2,0.06,22.68,1
-0.79,-0.18,10.42,-0.04,-0.12,0.0,22.68,1
-0.75,-0.07,10.69,0.02,-0.04,0.06,22.68,1
-0.65,0.05,10.22,0.04,0.16,0.03,22.67,1
-0.61,-0.19,9.45,0.24,0.04,-0.08,22.68,1
-0.58,-0.12,8.98,0.12,0.15,-0.02,22.68,1
-0.73,-0.04,9.07,-0.08,0.33,0.14,22.68,1
-1.29,0.38,8.56,-0.02,0.31,0.06,22.67,1
-1.28,0.29,8.1,-0.17,0.24,0.11,22.67,1
-1.54,-0.04,6.88,0.02,0.18,-0.02,22.67,1
-2.34,-0.11,7.5,-0.11,-0.13,-0.13,22.67,1
-1.61,-0.55,8.27,-0.35,0.01,0.03,22.67,1
-2.1,-0.42,8.6,-0.36,-0.08,0.09,22.67,1
-1.47,-0.53,9.17,-0.07,-0.47,-0.06,22.66,1
-1.36,-0.57,9.19,0.13,-0.66,-0.09,22.67,1
-0.05,-0.21,10.06,-0.08,-0.45,-0.03,22.67,1
-0.41,-0.24,10.9,-0.08,-0.43,-0.02,22.68,1
0.07,-0.6,11.77,0.16,-0.24,-0.05,22.67,1
0.18,-0.4,10.64,0.09,0.21,-0.06,22.68,1
0.11,-0.38,10.02,0.13,0.24,-0.05,22.68,1
-0.19,-0.15,9.31,0.21,0.33,-0.06,22.67,1
-0.55,-0.04,9.05,0.01,0.27,-0.01,22.68,1
-0.87,0.12,8.9,-0.05,0.29,-0.04,22.68,1
-1.21,0.38,8.13,-0.07,0.32,0.09,22.67,1
-1.59,0.0,7.69,-0.05,0.17,0.09,22.68,1
-2.23,0.05,6.9,0.01,0.04,-0.02,22.67,1
-1.73,-0.15,7.04,-0.15,-0.27,-0.05,22.67,1
-1.51,-0.37,8.42,0.04,-0.29,-0.19,22.68,1
-1.41,-0.18,9.14,0.01,-0.27,-0.05,22.68,1
-1.29,-0.45,8.97,0.2,-0.32,0.02,22.68,1
-0.83,-0.22,9.63,0.07,-0.43,0.1,22.68,1
-0.43,-0.22,10.18,-0.0,-0.34,-0.03,22.69,1
-0.49,-0.06,10.01,0.18,-0.29,-0.04,22.68,1
-0.6,-0.39,10.43,0.07,-0.11,0.04,22.69,1
-0.59,-0.2,9.93,0.06,0.0,-0.04,22.69,1
-0.89,-0.42,10.25,0.04,-0.02,-0.17,22.68,1
0.07,0.01,9.85,0.03,0.23,0.16,22.69,1
0.04,0.56,9.67,0.11,0.31,0.13,22.69,1
-0.5,0.2,9.19,0.03,0.35,0.0,22.68,1
-1.67,0.12,8.29,0.08,0.35,0.05,22.69,1
-2.14,-0.11,8.22,0.08,0.06,-0.06,22.68,1
-1.56,0.21,7.92,-0.05,0.18,0.05,22.68,1
-1.72,-0.01,7.14,-0.14,0.18,0.04,22.67,1
-2.01,-0.14,7.35,-0.01,-0.05,-0.01,22.67,1
-1.94,0.54,7.91,-0.2,-0.19,-0.07,22.67,1
-1.72,0.06,8.75,-0.1,-0.27,-0.07,22.67,1
-1.55,0.86,9.12,0.03,-0.55,-0.1,22.69,1
-0.73,-0.13,9.96,-0.01,-0.38,-0.05,22.68,1
-1.04,-0.18,8.7,0.23,-0.41,-0.05,22.67,1
-1.09,-0.15,10.56,-0.09,-0.39,-0.03,22.67,1
-0.72,-0.35,10.67,0.18,-0.2,-0.04,22.67,1
-0.51,-0.33,10.35,0.12,0.09,-0.01,22.68,1
-0.84,-0.17,10.01,0.17,0.18,0.01,22.68,1
-0.72,0.2,9.49,0.07,0.27,0.0,22.69,1
-1.22,0.0,9.26,-0.09,0.29,-0.02,22.69,1
-1.41,-0.29,9.0,-0.07,0.24,-0.04,22.69,1
-1.66,-0.15,8.6,0.01,0.22,0.1,22.69,1
-1.95,-0.04,8.54,-0.02,0.11,0.0,22.69,1
-1.97,0.0,7.89,-0.03,0.1,-0.01,22.68,1
-1.54,-0.03,7.2,0.11,0.04,0.07,22.67,1
-2.36,0.37,7.88,-0.08,-0.14,-0.08,22.68,1
-2.17,-0.11,8.23,0.13,-0.13,-0.33,22.68,1
-2.2,-0.4,7.51,0.0,-0.31,-0.25,22.68,1
-1.95,-0.37,9.57,0.01,-0.4,-0.05,22.68,1
-1.32,-0.06,9.23,0.05,-0.21,0.25,22.68,1
-1.36,-0.11,8.74,0.03,-0.44,0.22,22.68,1
-0.65,0.37,10.32,0.13,-0.63,0.04,22.68,1
-1.21,-0.19,11.58,-0.04,-0.22,0.01,22.68,1
-0.29,0.0,10.35,0.02,0.11,-0.03,22.69,1
-1.12,-0.08,10.01,0.05,0.04,0.01,22.68,1
0.14,0.35,10.0,-0.04,0.19,0.03,22.67,1
-0.61,0.61,8.91,-0.09,0.32,-0.1,22.69,1
-1.08,0.37,8.85,0.0,0.12,-0.02,22.68,1
-1.15,-0.07,8.46,-0.03,0.21,0.1,22.68,1
-1.04,0.45,8.17,0.09,0.07,0.13,22.68,1
-1.11,0.02,6.92,0.07,0.11,0.05,22.69,1
-1.29,0.33,7.73,-0.04,0.03,-0.08,22.68,1
-1.42,0.24,7.55,-0.19,0.07,-0.13,22.68,1
-2.04,-0.3,7.75,0.02,-0.2,-0.17,22.68,1
-2.63,0.03,8.61,-0.11,-0.45,0.03,22.67,1
-1.35,-0.52,9.86,-0.12,-0.64,-0.06,22.68,1
-0.44,-0.42,10.14,0.07,-0.58,-0.04,22.69,1
-0.02,-0.16,11.01,0.19,-0.37,-0.04,22.69,1
-0.2,-0.4,11.39,0.07,0.02,0.03,22.7,1
-0.64,-0.56,10.88,0.04,0.19,0.08,22.69,1
-0.43,0.31,9.78,0.24,0.21,0.01,22.69,1
-0.3,0.72,9.38,0.05,0.24,-0.14,22.67,1
-0.53,0.28,8.41,-0.19,0.46,0.24,22.68,1
-1.1,-0.05,8.17,-0.03,0.14,0.25,22.68,1
-0.62,0.25,8.16,0.22,-0.06,0.17,22.68,1
-1.28,0.21,7.14,0.1,0.15,0.01,22.67,1
-1.13,0.55,7.46,-0.01,-0.06,-0.12,22.67,1
-1.44,0.89,7.84,0.11,-0.14,-0.35,22.68,1
-1.04,0.62,8.07,-0.21,0.03,-0.12,22.67,1
-2.09,-0.36,9.64,-0.17,-0.25,0.01,22.68,1
-1.2,-0.19,9.86,-0.1,-0.33,0.32,22.68,1
-0.62,0.52,10.2,0.03,-0.49,0.11,22.68,1
-0.84,0.03,10.66,-0.07,-0.37,-0.08,22.68,1
-0.36,-0.35,10.94,-0.06,-0.06,-0.04,22.69,1
-0.56,0.0,10.34,-0.01,0.18,0.03,22.69,1
-0.73,-0.37,9.98,0.15,0.19,-0.03,22.69,1
-0.47,0.09,9.29,0.09,0.21,-0.15,22.68,1
-0.53,-0.08,8.83,0.01,0.2,0.01,22.68,1
-1.13,0.07,8.57,-0.17,0.25,0.15,22.69,1
-0.77,0.22,8.62,0.17,0.13,0.18,22.69,1
-0.97,0.3,7.17,0.04,0.16,0.19,22.68,1
-1.7,0.51,7.12,0.03,0.06,0.0,22.68,1
-1.11,0.99,7.48,0.03,-0.12,-0.27,22.68,1
-1.47,0.35,8.37,0.15,-0.34,-0.36,22.69,1
-0.69,0.19,9.28,-0.15,-0.4,-0.04,22.69,1
-0.78,-0.5,9.62,0.04,-0.44,0.28,22.69,1
-0.81,-0.04,9.7,0.02,-0.52,0.15,22.69,1
0.07,0.33,10.74,-0.01,-0.39,0.05,22.69,1
0.13,-0.33,10.97,-0.0,-0.07,-0.02,22.69,1
0.06,-0.23,10.84,0.01,0.25,0.01,22.7,1
-0.39,0.01,10.38,0.1,0.28,-0.08,22.69,1
-0.68,0.47,9.65,0.08,0.35,-0.14,22.68,1
-0.6,0.31,8.84,0.05,0.27,-0.06,22.69,1
-1.42,0.73,8.4,0.03,0.31,0.1,22.68,1
-1.63,0.1,8.24,-0.06,0.19,0.21,22.68,1
-1.28,0.07,7.74,0.05,0.17,0.16,22.68,1
-2.13,0.58,6.62,-0.19,0.2,0.06,22.68,1
-1.78,0.44,7.07,-0.01,-0.08,-0.01,22.69,1
-2.16,0.61,7.84,-0.26,-0.01,0.0,22.69,1
-2.04,0.19,9.05,-0.13,-0.56,-0.1,22.68,1
-1.16,-0.67,9.9,0.02,-0.62,0.11,22.69,1
-0.71,-0.1,9.35,0.05,-0.6,0.09,22.69,1
-0.71,0.23,10.24,-0.05,-0.59,0.14,22.68,1
0.33,-0.33,12.08,0.08,-0.39,-0.02,22.68,1
0.61,-0.2,10.89,0.09,0.22,-0.1,22.69,1
-0.2,-0.01,10.18,0.14,0.4,-0.04,22.69,1
-0.72,-0.17,9.61,0.19,0.3,-0.19,22.69,1
-0.63,0.44,9.25,0.2,0.28,-0.17,22.7,1
-0.74,0.14,8.62,0.06,0.25,-0.05,22.69,1
-1.34,0.34,8.4,0.15,0.29,0.16,22.68,1
-1.54,0.6,7.92,-0.07,0.25,0.14,22.69,1
-1.66,0.16,7.35,-0.07,0.11,0.14,22.69,1
-2.5,0.29,6.89,-0.08,0.07,0.03,22.69,1
-1.54,0.31,7.41,0.02,-0.2,-0.22,22.69,1
-2.0,0.44,7.96,-0.01,-0.25,-0.13,22.69,1
-1.33,0.14,9.14,-0.32,-0.32,0.2,22.68,1
-1.34,0.03,9.3,-0.18,-0.5,0.13,22.68,1
-0.61,0.29,9.71,0.12,-0.62,-0.03,22.69,1
0.01,0.07,10.44,0.05,-0.53,-0.12,22.69,1
0.12,-0.49,11.21,0.02,-0.32,-0.09,22.69,1
0.81,-0.35,11.08,0.02,0.15,0.04,22.69,1
-0.46,-0.59,10.06,0.06,0.3,0.03,22.7,1
-0.31,-0.14,9.53,-0.03,0.35,0.0,22.69,1
-0.61,0.2,9.38,0.02,0.23,-0.08,22.69,1
-0.72,0.15,9.04,0.13,0.16,-0.02,22.68,1
-0.37,0.64,8.86,0.07,0.22,0.14,22.69,1
-1.18,-0.22,8.19,-0.07,0.06,0.04,22.7,1
-0.64,-0.17,7.52,0.17,0.04,0.16,22.69,1
-1.84,0.42,6.7,0.19,0.05,0.09,22.7,1
-0.84,0.57,7.58,-0.01,-0.03,-0.12,22.69,1
-2.09,-0.47,7.89,0.12,-0.15,-0.03,22.69,1
-1.67,0.19,9.24,0.22,-0.49,-0.09,22.69,1
-1.04,0.03,9.35,-0.01,-0.51,-0.04,22.69,1
-0.62,-0.48,9.45,-0.42,-0.49,0.03,22.69,1
0.24,-0.59,10.6,-0.08,-0.48,-0.03,22.69,1
0.42,-0.1,11.29,-0.13,-0.23,-0.04,22.71,1
0.43,-0.59,11.12,0.04,0.13,-0.04,22.7,1
0.02,-0.37,10.69,0.03,0.41,-0.01,22.7,1
-0.05,0.29,9.95,0.17,0.47,-0.02,22.71,1
-0.43,0.54,9.15,0.04,0.56,0.0,22.7,1
-1.37,0.48,8.24,0.06,0.41,0.08,22.7,1
-1.72,0.21,8.11,-0.04,0.26,0.11,22.69,1
-2.13,0.27,7.68,0.12,0.09,0.14,22.7,1
-1.52,0.29,7.29,0.0,0.12,0.11,22.69,1
-2.37,0.78,7.56,0.03,0.03,-0.02,22.7,1
-1.57,1.01,7.53,0.08,0.02,-0.12,22.69,1
-2.88,0.45,7.91,-0.1,-0.22,-0.12,22.7,1
-2.13,0.51,9.4,-0.01,-0.35,0.18,22.69,1
-1.67,0.66,9.12,-0.04,-0.39,0.06,22.7,1
-1.37,0.45,9.28,-0.09,-0.42,0.08,22.7,1
-0.96,0.28,9.63,-0.1,-0.45,0.06,22.69,1
-0.51,0.25,10.77,-0.04,-0.35,-0.06,22.69,1
-0.55,-0.12,10.62,0.0,-0.12,-0.11,22.7,1
-0.66,-0.28,11.0,0.06,0.19,-0.02,22.71,1
-1.09,-0.13,10.03,0.11,0.27,-0.07,22.72,1
-0.39,0.46,9.32,0.06,0.38,-0.06,22.71,1
-1.37,0.33,8.62,-0.08,0.36,-0.0,22.7,1
-1.71,-0.13,8.25,-0.07,0.18,0.14,22.71,1
-1.68,-0.12,8.12,-0.02,0.09,0.13,22.69,1
-1.75,-0.35,7.93,-0.01,0.15,0.2,22.7,1
-2.29,0.14,6.79,-0.07,0.22,0.08,22.71,1
-2.09,0.26,7.74,-0.06,-0.05,-0.13,22.71,1
-1.88,0.38,8.0,0.03,-0.19,-0.21,22.69,1
-2.14,-0.66,9.06,-0.08,-0.24,-0.13,22.7,1
-1.89,-0.51,8.92,-0.02,-0.3,0.06,22.69,1
-1.73,-0.38,9.44,0.05,-0.47,-0.05,22.7,1
-1.16,0.23,9.57,0.16,-0.54,-0.07,22.71,1
-0.91,-0.39,10.35,-0.09,-0.4,0.01,22.7,1
-0.95,-0.59,11.09,-0.02,-0.23,-0.05,22.7,1
-0.14,-0.08,10.93,0.1,0.16,0.04,22.72,1
-0.97,0.37,10.01,0.1,0.36,0.03,22.71,1
-1.11,0.49,9.43,0.16,0.3,-0.13,22.71,1
-1.07,0.48,9.17,-0.02,0.42,-0.05,22.7,1
-1.55,0.03,8.92,0.08,0.17,-0.1,22.7,1
-1.62,0.43,8.02,0.11,0.22,0.14,22.71,1
-2.16,0.43,7.64,-0.07,0.09,0.08,22.7,1
-0.75,0.38,6.75,0.19,-0.05,-0.01,22.69,1
-2.6,-0.07,7.17,0.06,-0.07,-0.03,22.71,1
-1.36,0.76,7.27,0.17,-0.12,-0.23,22.69,1
-2.98,0.13,8.12,0.14,-0.43,-0.17,22.69,1
-2.17,0.1,9.37,0.08,-0.59,0.03,22.71,1
-1.48,0.61,9.19,-0.05,-0.63,-0.03,22.71,1
-0.51,0.34,10.07,0.15,-0.63,-0.12,22.71,1
-0.7,0.1,10.07,-0.0,-0.49,-0.16,22.71,1
-0.31,-0.17,11.22,0.04,-0.25,-0.12,22.71,1
0.11,-0.07,11.4,0.06,0.2,0.01,22.71,1
-0.55,0.18,9.7,0.05,0.47,0.09,22.7,1
-0.69,0.35,9.25,0.09,0.35,-0.04,22.71,1
-0.65,0.61,8.77,-0.03,0.39,0.04,22.7,1
-1.49,0.28,8.3,-0.09,0.29,0.19,22.71,1
-1.61,0.58,8.62,-0.09,0.2,0.16,22.69,1
-1.76,0.58,8.14,-0.1,0.19,-0.04,22.7,1
-1.65,0.27,7.52,-0.02,0.09,0.21,22.7,1
-2.68,0.59,6.92,0.02,0.09,0.0,22.7,1
-1.94,0.57,7.07,-0.12,-0.09,-0.07,22.7,1
-2.36,0.35,7.71,-0.02,-0.36,-0.05,22.69,1
-1.73,-0.35,9.34,-0.3,-0.29,0.06,22.69,1
-1.64,-0.66,9.4,-0.27,-0.32,0.02,22.71,1
-1.03,-0.88,9.8,-0.07,-0.46,-0.04,22.71,1
-0.88,-0.19,10.01,-0.03,-0.37,-0.07,22.7,1
-0.47,-0.51,10.77,-0.09,-0.26,-0.07,22.71,1
-0.72,-0.76,11.02,0.03,0.0,-0.04,22.71,1
-0.11,-0.13,10.74,0.16,0.3,0.0,22.71,1
-1.03,-0.14,9.72,0.15,0.34,-0.06,22.71,1
-0.99,0.02,9.33,0.14,0.31,0.05,22.71,1
-1.24,0.24,8.77,-0.0,0.31,-0.11,22.71,1
-1.82,0.33,8.45,-0.08,0.3,0.08,22.7,1
-1.88,0.2,8.23,-0.14,0.31,0.21,22.71,1
-2.68,-0.24,7.8,-0.07,0.15,0.17,22.71,1
-2.07,0.13,7.08,0.15,0.14,0.11,22.7,1
-2.7,0.09,6.63,-0.03,-0.09,0.11,22.7,1
-2.65,0.42,7.1,0.02,-0.13,-0.17,22.71,1
-2.51,0.54,8.37,0.02,-0.4,-0.18,22.7,1
-1.7,0.37,8.89,0.06,-0.5,-0.09,22.69,1
-1.75,-0.13,9.43,-0.12,-0.51,0.15,22.71,1
-1.03,0.58,9.81,0.12,-0.69,-0.0,22.71,1
-0.52,-0.34,11.25,-0.09,-0.48,-0.11,22.7,1
-0.81,-0.56,11.34,-0.05,-0.07,-0.09,22.71,1
-0.8,-0.3,10.87,0.02,0.17,-0.02,22.72,1
-0.94,0.19,9.87,0.07,0.29,0.02,22.71,1
-0.74,0.38,9.21,0.04,0.27,-0.08,22.71,1
-1.01,0.16,8.98,0.05,0.28,-0.05,22.7,1
-1.4,0.48,8.66,-0.09,0.23,0.02,22.7,1
-1.87,0.21,8.58,-0.13,0.26,0.17,22.7,1
-1.76,0.58,7.91,-0.14,0.25,0.27,22.7,1
-1.88,0.26,7.0,-0.15,0.13,0.12,22.7,1
-2.15,0.51,7.33,0.02,-0.1,-0.13,22.71,1
-1.6,0.79,7.26,0.07,-0.24,-0.4,22.71,1
-2.69,-0.91,8.65,-0.13,-0.21,-0.26,22.71,1
-2.12,-0.2,9.11,0.12,-0.56,-0.11,22.7,1
-1.15,0.23,9.38,0.13,-0.55,-0.12,22.71,1
-0.3,0.15,9.57,0.2,-0.58,-0.09,22.71,1
-0.37,0.41,10.26,0.19,-0.5,-0.06,22.71,1
-0.75,-0.25,11.9,-0.13,-0.18,-0.04,22.72,1
-0.12,0.1,10.89,-0.05,0.26,-0.1,22.72,1
-0.71,0.13,9.65,0.07,0.36,0.0,22.71,1
-0.78,-0.0,9.19,0.1,0.3,-0.0,22.72,1
-0.96,0.21,8.82,-0.02,0.33,-0.07,22.72,1
-1.64,-0.43,8.44,-0.23,0.29,0.21,22.71,1
-1.82,-0.04,8.84,0.05,0.16,0.33,22.71,1
-1.76,0.14,7.92,-0.05,0.22,0.23,22.71,1
-1.6,0.16,6.83,-0.01,0.17,0.01,22.71,1
-2.46,0.47,6.99,-0.04,0.02,-0.11,22.7,1
-2.26,0.1,7.18,-0.17,0.15,-0.01,22.7,1
-3.15,-0.1,8.6,-0.05,-0.49,-0.18,22.71,1
-2.03,-0.58,9.93,-0.11,-0.51,0.1,22.72,1
-1.55,-0.79,10.01,-0.31,-0.22,0.35,22.72,1
-1.11,-0.03,9.66,-0.07,-0.4,-0.04,22.72,1
-0.98,-0.5,10.3,0.05,-0.38,-0.21,22.71,1
-1.1,-1.16,11.33,0.01,-0.13,-0.11,22.72,1
-0.66,-0.53,10.41,0.08,0.11,-0.07,22.72,1
-0.92,-0.31,9.69,0.08,0.29,0.04,22.72,1
-0.89,0.26,9.14,0.09,0.26,-0.09,22.72,1
-1.08,0.43,9.19,0.18,0.2,-0.13,22.72,1
-1.21,0.56,8.63,-0.07,0.37,0.12,22.71,1
-1.85,0.38,8.53,-0.03,0.19,0.19,22.72,1
-1.8,0.37,8.26,0.0,0.13,0.17,22.7,1
-1.47,-0.29,7.24,0.13,0.17,0.06,22.72,1
-3.23,0.12,6.91,-0.2,0.02,-0.06,22.7,1
-1.94,0.22,7.98,-0.06,-0.08,-0.08,22.71,1
-1.99,0.52,7.97,-0.24,0.15,0.09,22.72,1
-3.19,-0.15,8.42,-0.08,-0.29,-0.02,22.72,1
-2.18,0.05,9.46,0.05,-0.57,-0.07,22.71,1
-1.24,-0.05,9.47,0.03,-0.55,0.03,22.7,1
-1.04,0.21,9.88,0.03,-0.61,0.0,22.72,1
-1.56,-0.51,11.3,-0.16,-0.33,-0.14,22.71,1
-0.88,-0.76,11.41,0.03,0.06,-0.03,22.73,1
-0.84,-0.16,10.01,0.26,0.1,-0.1,22.7,1
-0.75,0.09,8.93,0.07,0.18,-0.16,22.72,1
-0.91,0.18,9.18,0.17,0.07,-0.18,22.7,1
-0.82,0.41,9.01,0.02,0.25,-0.01,22.71,1
-1.06,0.48,8.5,0.03,0.26,0.12,22.71,1
-1.95,-0.14,8.13,0.05,0.16,0.07,22.7,1
-2.05,0.07,8.15,0.1,0.03,0.06,22.7,1
-1.85,0.13,7.35,-0.04,0.16,0.01,22.69,1
-2.16,0.29,7.43,-0.0,-0.03,-0.04,22.69,1
-2.07,0.2,7.36,0.03,-0.14,-0.24,22.71,1
-2.64,-0.29,8.64,-0.07,-0.24,-0.12,22.7,1
-2.21,0.45,9.14,0.16,-0.53,-0.0,22.7,1
-1.29,0.59,9.36,-0.01,-0.57,-0.02,22.72,1
-0.29,0.08,9.41,0.03,-0.59,-0.01,22.71,1
-0.27,0.18,10.44,-0.03,-0.55,-0.02,22.72,1
0.07,-0.56,12.14,-0.1,-0.21,-0.05,22.72,1
-0.01,-0.08,10.38,-0.03,0.29,-0.02,22.72,1
-0.39,-0.12,10.18,0.07,0.28,0.15,22.72,1
-0.56,0.07,9.38,-0.02,0.44,-0.02,22.72,1
-0.85,0.42,8.81,-0.05,0.37,-0.07,22.72,1
-1.3,-0.17,8.54,-0.11,0.36,0.06,22.7,1
-1.71,0.01,8.42,0.13,0.12,0.12,22.71,1
-2.41,0.1,8.27,-0.09,0.0,0.25,22.71,1
-1.55,-0.49,6.95,-0.19,0.12,0.07,22.71,1
-1.77,0.16,7.65,0.1,0.01,0.03,22.71,1
-1.8,0.4,7.28,0.04,-0.07,-0.07,22.7,1
-1.64,0.52,8.32,0.09,-0.44,-0.29,22.7,1
-1.28,0.59,9.01,0.02,-0.55,-0.1,22.71,1
-0.5,0.88,10.18,-0.16,-0.48,0.15,22.71,1
0.21,0.37,10.66,-0.1,-0.5,0.01,22.72,1
0.47,0.38,10.81,0.08,-0.46,-0.09,22.71,1
0.08,-0.43,11.33,-0.05,-0.07,-0.08,22.72,1
0.19,-0.07,10.96,0.03,0.24,0.03,22.72,1
-0.59,0.23,10.15,-0.03,0.43,0.04,22.7,1
-0.16,0.03,9.74,0.11,0.35,-0.06,22.71,1
-0.36,0.92,9.07,0.13,0.41,-0.06,22.71,1
-1.41,0.15,8.13,-0.1,0.28,0.17,22.7,1
-1.56,-0.03,8.32,0.06,0.1,0.14,22.69,1
-1.37,-0.23,7.98,-0.04,0.23,0.13,22.71,1
-1.96,0.04,6.45,0.09,0.2,0.05,22.7,1
-2.15,0.16,7.27,-0.09,-0.1,-0.02,22.72,1
-1.94,0.91,8.14,0.11,-0.24,-0.31,22.71,1
-2.14,0.05,9.01,-0.06,-0.24,-0.22,22.7,1
-1.41,0.04,9.84,-0.1,-0.37,0.1,22.7,1
-0.95,0.61,9.98,-0.07,-0.37,0.07,22.71,1
-0.76,0.15,9.64,-0.08,-0.3,-0.03,22.72,1
-0.58,0.51,9.72,0.06,-0.31,-0.11,22.72,1
-1.21,-0.9,11.41,-0.15,-0.23,-0.08,22.72,1
-0.1,-0.36,10.91,-0.05,0.22,0.07,22.72,1
-0.94,-0.08,9.99,-0.14,0.46,0.15,22.72,1
-1.12,-0.13,9.41,0.08,0.2,-0.09,22.72,1
-0.99,0.19,9.09,-0.07,0.36,0.13,22.73,1
-0.94,0.28,8.73,-0.03,0.37,0.17,22.71,1
-1.7,0.17,8.18,-0.1,0.5,0.2,22.72,1
-2.45,0.33,7.99,0.05,0.3,0.15,22.71,1
-2.48,0.13,6.57,-0.0,0.16,0.11,22.71,1
-2.59,0.33,7.13,-0.11,-0.08,0.04,22.71,1
-2.23,0.65,7.31,0.05,-0.19,-0.17,22.71,1
-2.61,0.26,8.6,-0.04,-0.37,-0.19,22.72,1
-2.3,-0.41,9.31,0.07,-0.49,-0.15,22.71,1
-1.8,0.0,8.9,0.12,-0.42,-0.02,22.72,1
-1.67,-0.38,9.15,0.09,-0.5,0.06,22.72,1
-1.67,-0.62,9.71,-0.01,-0.53,0.0,22.73,1
-0.85,-0.33,10.99,-0.07,-0.3,0.02,22.72,1
-0.69,-0.52,11.22,0.06,0.05,-0.04,22.73,1
-0.67,-0.34,10.39,0.23,0.17,0.02,22.73,1
-0.79,-0.33,9.46,0.2,0.19,-0.14,22.73,1
-0.71,0.15,8.93,0.13,0.27,-0.17,22.73,1
-1.76,-0.36,8.32,0.08,0.32,0.03,22.73,1
-1.9,0.07,8.11,0.1,0.22,0.11,22.72,1
-2.04,-0.23,7.45,0.15,0.02,0.08,22.72,1
-1.25,0.16,7.16,0.02,0.09,0.09,22.72,1
-1.77,0.33,7.12,-0.03,0.01,0.16,22.71,1
-2.45,0.1,8.22,-0.21,-0.07,0.05,22.72,1
-2.4,-0.28,8.93,-0.15,-0.31,-0.05,22.72,1
-1.86,-0.37,9.25,-0.33,-0.25,0.04,22.72,1
-1.69,-0.2,9.51,-0.23,-0.36,0.05,22.72,1
-0.6,-0.47,9.99,-0.05,-0.54,0.02,22.72,1
-1.56,-0.54,11.82,-0.14,-0.34,-0.1,22.73,1
-0.37,-0.26,11.37,0.12,0.08,-0.09,22.73,1
-0.99,-0.29,10.1,0.22,0.21,-0.03,22.72,1
-0.62,0.08,9.57,0.14,0.3,-0.18,22.72,1
-0.69,0.03,8.58,0.15,0.25,-0.09,22.73,1
-1.22,-0.02,8.42,0.13,0.17,0.08,22.72,1
-1.52,-0.2,8.34,0.08,0.19,0.15,22.72,1
-1.82,0.21,8.15,0.09,0.14,0.2,22.72,1
-1.38,0.53,6.76,-0.04,0.17,0.09,22.72,1
-2.24,0.36,7.3,0.01,0.05,-0.04,22.72,1
-2.05,0.63,7.23,-0.03,-0.17,-0.35,22.72,1
-2.63,-0.58,8.21,-0.14,-0.41,-0.37,22.72,1
-2.13,-0.1,9.96,-0.1,-0.46,0.05,22.72,1
-1.27,-0.04,9.94,-0.02,-0.43,0.02,22.72,1
-0.87,-0.46,9.75,0.1,-0.42,0.08,22.72,1
-0.46,0.01,10.39,0.07,-0.35,-0.02,22.72,1
-0.82,-0.57,11.2,-0.02,-0.06,-0.01,22.72,1
-0.63,-0.38,10.95,-0.08,0.32,0.09,22.72,1
-1.44,0.09,9.64,0.09,0.28,-0.03,22.72,1
-0.65,0.36,9.44,0.17,0.35,-0.11,22.73,1
-1.13,0.56,8.6,-0.07,0.41,0.02,22.72,1
-2.12,-0.15,8.35,-0.01,0.26,0.16,22.72,1
-2.26,0.55,8.09,0.17,0.11,0.24,22.71,1
-1.83,0.11,7.33,0.08,0.08,0.14,22.72,1
-2.1,0.64,6.94,0.07,0.06,-0.02,22.72,1
-2.1,0.58,7.3,-0.1,-0.05,-0.06,22.71,1
-2.4,0.35,7.78,-0.15,-0.23,-0.26,22.72,1
-2.34,-0.77,8.37,-0.16,-0.38,-0.08,22.72,1
-2.21,-0.66,9.09,-0.17,-0.46,0.19,22.73,1
-1.91,-0.73,8.94,0.18,-0.7,-0.02,22.73,1
-0.58,0.42,10.26,0.16,-0.66,-0.07,22.73,1
-0.9,-0.62,11.97,-0.03,-0.34,-0.11,22.72,1
-0.01,-0.25,11.32,0.0,0.09,-0.05,22.72,1
-0.93,-0.36,9.88,-0.05,0.24,0.02,22.73,1
-0.12,0.48,9.8,0.19,0.2,-0.03,22.73,1
-0.47,0.18,9.01,-0.06,0.47,0.01,22.73,1
-1.41,-0.25,8.8,-0.16,0.38,0.11,22.73,1
-1.49,-0.04,8.09,-0.11,0.38,0.24,22.72,1
-1.57,0.4,7.22,0.01,0.19,0.16,22.72,1
-2.67,0.04,6.43,0.01,0.07,-0.02,22.72,1
-2.09,-0.11,7.0,0.13,-0.12,-0.14,22.72,1
-1.58,0.73,8.4,0.01,-0.21,-0.12,22.72,1
-1.71,0.87,8.79,0.26,-0.44,-0.07,22.73,1
-1.2,0.37,9.19,0.09,-0.61,-0.05,22.73,1
-0.48,-0.26,9.9,0.12,-0.55,0.0,22.73,1
-0.69,-0.26,10.24,0.09,-0.39,-0.01,22.73,1
-1.18,-0.78,11.63,-0.02,-0.27,-0.05,22.72,1
-0.46,-0.45,10.93,0.03,0.1,-0.01,22.73,1
-0.72,-0.26,10.28,0.06,0.23,0.05,22.72,1
-0.83,-0.07,9.19,0.14,0.33,-0.13,22.73,1
-0.54,0.52,8.89,0.06,0.29,-0.02,22.72,1
-1.51,-0.26,8.42,-0.04,0.25,0.12,22.73,1
-1.76,-0.32,8.22,-0.05,0.21,0.27,22.72,1
-1.79,0.22,7.84,0.09,0.04,0.26,22.72,1
-1.46,0.39,7.24,-0.04,0.16,0.08,22.72,1
-1.9,0.3,7.46,-0.13,0.11,0.01,22.72,1
-2.15,-0.06,7.41,-0.11,0.04,-0.14,22.72,1
-2.96,-0.99,8.0,-0.15,-0.33,-0.12,22.71,1
-2.2,-0.58,9.42,0.01,-0.49,0.04,22.72,1
-1.32,0.17,9.37,0.23,-0.52,-0.01,22.72,1
-0.74,0.42,9.75,0.19,-0.57,0.03,22.72,1
-0.87,0.17,10.92,0.13,-0.39,-0.02,22.72,1
-0.42,-0.24,11.19,-0.01,0.02,-0.02,22.72,1
-0.95,-0.09,10.81,0.1,0.25,0.01,22.73,1
-0.82,-0.31,9.97,-0.01,0.28,-0.04,22.73,1
-0.76,0.29,8.86,0.02,0.38,-0.03,22.72,1
-1.88,-0.14,8.4,-0.13,0.32,0.14,22.71,1
-2.07,0.23,8.3,-0.04,0.27,0.26,22.72,1
-2.26,0.11,8.12,-0.04,0.16,0.15,22.73,1
-1.74,-0.04,6.92,0.04,0.16,0.05,22.72,1
-2.56,0.25,7.31,0.04,0.01,-0.01,22.72,1
-2.1,0.35,6.97,0.11,-0.12,0.28,22.72,1
-3.18,0.34,8.01,-0.23,-0.18,-0.08,22.71,1
-2.63,0.04,8.74,-0.29,-0.41,-0.02,22.72,1
-2.23,0.02,9.22,-0.17,-0.42,-0.0,22.71,1
-1.1,-0.05,9.56,0.06,-0.61,-0.14,22.72,1
-0.53,-0.07,10.14,0.11,-0.49,-0.05,22.73,1
-0.23,-0.15,10.82,-0.05,-0.2,-0.02,22.72,1
-0.51,-0.05,10.98,-0.02,0.05,-0.1,22.73,1
-0.92,-0.4,10.55,0.05,0.18,-0.09,22.72,1
-0.7,-0.0,10.22,-0.02,0.38,-0.13,22.72,1
-0.91,0.77,9.43,0.18,0.24,-0.24,22.73,1
-0.7,0.5,8.49,-0.03,0.32,-0.03,22.73,1
-1.44,-0.17,7.92,-0.0,0.33,0.11,22.73,1
-2.11,0.09,8.22,0.11,0.17,0.11,22.72,1
-1.93,-0.04,7.64,-0.03,0.21,0.1,22.72,1
-2.76,0.24,7.07,0.09,0.07,0.09,22.72,1
-1.89,0.71,7.57,0.01,0.1,-0.06,22.72,1
-2.49,0.69,7.35,0.03,-0.15,-0.11,22.73,1
-2.89,0.25,9.11,-0.25,-0.13,0.19,22.72,1
-2.61,-0.47,8.93,-0.22,-0.21,0.08,22.73,1
-1.9,-0.03,8.97,-0.01,-0.55,-0.03,22.74,1
-1.24,0.19,9.95,-0.09,-0.57,-0.03,22.74,1
-1.13,0.01,10.75,-0.06,-0.44,-0.04,22.73,1
-0.94,-0.34,11.43,-0.01,-0.16,-0.07,22.73,1
-1.33,-0.63,10.65,0.09,0.08,-0.11,22.74,1
-1.02,0.0,9.96,-0.09,0.22,-0.02,22.73,1
-0.97,-0.28,9.19,-0.12,0.35,-0.08,22.73,1
-1.22,0.09,8.91,-0.12,0.31,0.04,22.73,1
-1.59,0.18,8.37,-0.12,0.31,0.16,22.72,1
-1.84,-0.17,8.2,0.1,0.1,0.16,22.73,1
-1.91,-0.04,8.16,0.03,0.07,0.18,22.73,1
-1.79,-0.14,7.31,-0.03,0.11,0.11,22.72,1
-2.42,0.41,7.38,0.04,0.0,0.03,22.73,1
-2.19,-0.54,7.61,0.01,0.13,-0.12,22.74,1
-2.91,0.18,7.35,-0.21,-0.0,-0.14,22.74,1
-2.45,0.26,8.82,0.16,-0.58,-0.29,22.74,1
-1.86,-0.68,9.64,0.06,-0.38,-0.17,22.74,1
-1.44,-0.24,9.5,0.03,-0.65,-0.05,22.72,1
-1.19,-0.65,10.27,0.08,-0.62,-0.01,22.74,1
-0.64,-0.27,10.81,0.08,-0.3,-0.05,22.74,1
-0.77,-0.9,10.94,-0.04,0.09,-0.02,22.73,1
-1.22,-0.69,10.45,0.22,0.14,-0.02,22.74,1
-1.03,-0.23,9.61,0.21,0.18,-0.18,22.74,1
-0.65,-0.11,9.19,0.07,0.29,0.05,22.74,1
-1.26,-0.01,8.64,-0.04,0.38,0.12,22.73,1
-1.43,0.2,8.48,-0.03,0.28,0.1,22.74,1
-1.89,0.44,8.41,0.01,0.29,0.17,22.73,1
-2.38,-0.14,7.9,0.06,0.17,0.13,22.74,1
-2.29,-0.17,6.76,0.03,0.13,0.05,22.73,1
-2.49,-0.09,7.05,-0.17,0.04,0.09,22.73,1
-2.46,1.02,6.81,-0.22,0.12,0.12,22.74,1
-3.16,-0.34,8.51,-0.14,-0.37,-0.08,22.72,1
-2.41,-0.39,9.43,-0.09,-0.42,-0.04,22.73,1
-1.51,0.23,9.67,-0.1,-0.45,-0.01,22.73,1
-1.78,-0.67,9.08,0.18,-0.64,-0.02,22.72,1
-1.93,-0.83,10.58,0.04,-0.51,-0.12,22.74,1
-1.39,-1.19,11.34,-0.04,-0.13,-0.01,22.73,1
-1.5,-0.55,10.3,0.02,0.07,-0.01,22.73,1
-1.58,-0.8,9.93,0.08,0.11,-0.06,22.74,1
-0.59,-0.25,9.1,0.06,0.18,-0.03,22.74,1
-1.31,-0.28,8.87,-0.08,0.28,-0.03,22.74,1
-1.56,-0.33,8.61,0.01,0.35,0.05,22.73,1
-1.86,0.12,8.5,0.21,0.21,0.03,22.73,1
-2.38,0.31,8.12,0.04,0.14,0.07,22.73,1
-2.16,0.08,7.54,0.08,0.0,0.03,22.73,1
-2.35,0.17,7.19,0.05,0.01,-0.05,22.72,1
-1.8,0.07,7.31,0.09,-0.04,-0.1,22.72,1
-2.6,0.55,7.79,-0.13,-0.05,-0.07,22.73,1
-2.18,0.51,9.06,0.09,-0.4,-0.09,22.72,1
-1.63,-0.11,9.38,-0.05,-0.29,0.05,22.74,1
-1.0,0.33,9.42,0.13,-0.4,0.27,22.73,1
-1.33,0.51,9.55,-0.15,-0.42,0.19,22.74,1
-0.96,0.23,11.12,-0.18,-0.38,0.03,22.74,1
-0.69,0.11,10.81,-0.16,0.03,-0.09,22.75,1
-1.22,0.05,10.02,-0.12,0.16,-0.17,22.74,1
-0.83,0.41,10.24,-0.01,0.28,-0.06,22.75,1
-1.03,0.23,9.46,0.0,0.4,-0.08,22.74,1
-1.61,-0.27,8.84,0.04,0.33,-0.09,22.74,1
-1.58,0.16,8.54,0.11,0.22,-0.01,22.74,1
-1.28,-0.23,7.56,0.02,0.15,0.1,22.73,1
-1.27,0.19,6.65,0.14,0.05,0.15,22.74,1
-2.33,0.28,7.28,-0.05,-0.01,0.1,22.74,1
-1.95,-0.2,7.62,-0.01,-0.35,-0.08,22.74,1
-2.26,-1.07,8.5,0.04,-0.46,-0.18,22.74,1
-1.77,-0.06,9.48,0.06,-0.61,-0.2,22.74,1
-1.17,-0.57,9.81,0.03,-0.48,-0.18,22.74,1
-0.85,-0.86,10.25,0.01,-0.32,0.04,22.74,1
-0.96,-0.33,10.49,0.09,-0.24,-0.04,22.74,1
-0.74,-0.48,10.75,0.08,-0.07,-0.01,22.74,1
-0.65,-0.03,10.42,0.09,0.2,0.02,22.74,1
-0.71,0.09,10.0,0.09,0.18,0.0,22.75,1
-0.46,0.06,9.37,-0.05,0.32,0.06,22.75,1
-1.29,-0.18,8.56,-0.04,0.25,0.04,22.73,1
-1.63,-0.21,8.87,-0.07,0.11,0.04,22.73,1
-1.16,0.04,8.11,-0.05,0.19,0.14,22.74,1
-1.05,0.12,7.0,0.07,0.16,0.11,22.73,1
-2.22,0.09,7.14,-0.07,0.07,0.1,22.73,1
-1.64,0.2,7.33,-0.06,-0.16,-0.02,22.74,1
-1.56,0.37,8.13,-0.03,-0.29,-0.28,22.73,1
-1.43,-0.05,9.44,-0.11,-0.39,-0.13,22.74,1
-1.34,-0.17,9.75,0.04,-0.33,-0.11,22.74,1
-0.77,0.18,9.2,0.11,-0.36,-0.07,22.74,1
-1.01,-0.68,10.61,-0.02,-0.42,-0.11,22.75,1
-0.91,-0.94,11.33,-0.03,-0.09,-0.01,22.75,1
-0.84,-0.58,10.32,0.08,0.15,0.07,22.75,1
-0.79,-0.15,10.23,0.17,0.23,0.13,22.75,1
-0.78,-0.02,9.46,0.09,0.34,0.0,22.74,1
-1.11,-0.12,8.75,0.03,0.41,0.0,22.74,1
-1.86,0.23,8.21,0.15,0.04,-0.01,22.75,1
-1.61,0.28,8.09,-0.05,0.02,0.18,22.75,1
-1.06,-0.44,7.44,-0.01,-0.01,0.1,22.74,1
-2.06,0.12,7.78,-0.08,0.07,0.06,22.74,1
-1.89,0.72,7.51,-0.05,0.06,-0.11,22.75,1
-2.06,-0.17,8.16,-0.04,-0.09,-0.16,22.75,1
-1.48,0.19,9.12,0.06,-0.31,0.0,22.75,1
-2.14,-0.37,9.28,-0.27,-0.25,0.06,22.74,1
-1.64,-0.47,8.85,0.05,-0.51,-0.13,22.75,1
-1.08,-0.53,9.67,0.13,-0.67,-0.08,22.75,1
-1.09,-0.78,11.87,-0.07,-0.34,-0.04,22.75,1
-0.35,-0.41,11.04,-0.0,0.1,-0.04,22.75,1
-1.0,-0.94,9.72,0.04,0.25,0.14,22.75,1
-0.52,-0.21,9.4,0.06,0.23,0.07,22.75,1
-0.38,0.15,9.34,-0.06,0.26,0.04,22.76,1
-0.83,0.0,9.05,-0.09,0.37,0.06,22.75,1
-1.73,0.05,8.63,0.02,0.28,0.08,22.74,1
-1.68,0.17,8.11,0.07,0.2,0.15,22.75,1
-1.48,-0.03,6.95,-0.05,0.14,0.12,22.73,1
-2.57,0.16,7.18,0.0,-0.01,-0.01,22.73,1
-1.97,0.42,7.75,-0.14,0.05,0.05,22.74,1
-1.88,0.56,7.79,-0.26,-0.02,-0.14,22.75,1
-3.02,-0.93,8.19,-0.08,-0.25,-0.26,22.74,1
-1.71,-0.78,9.87,-0.25,-0.42,-0.12,22.76,1
-1.05,-0.33,9.89,0.04,-0.38,0.01,22.75,1
-1.27,-0.21,9.63,0.12,-0.44,-0.11,22.76,1
-1.36,-0.7,10.57,0.03,-0.32,-0.1,22.75,1
-0.81,-0.64,10.94,0.02,-0.04,0.05,22.75,1
-0.9,-0.41,11.35,0.19,0.1,0.07,22.76,1
-0.85,0.19,9.86,0.13,0.35,-0.07,22.77,1
-1.07,0.25,8.97,0.13,0.3,-0.05,22.76,1
-1.02,0.28,8.62,0.15,0.16,-0.01,22.75,1
-1.5,0.28,8.11,-0.03,0.37,0.22,22.76,1
-2.28,-0.17,8.17,0.03,0.19,0.2,22.74,1
-1.93,0.23,7.18,-0.1,0.25,0.16,22.75,1
-2.78,0.45,6.79,-0.13,0.12,-0.01,22.73,1
-2.18,1.09,6.89,0.18,-0.09,-0.05,22.74,1
-2.41,0.95,7.52,-0.16,-0.29,-0.16,22.74,1
-2.53,-0.61,9.03,-0.2,-0.56,-0.04,22.74,1
-2.21,-0.45,9.12,0.08,-0.62,0.02,22.74,1
-0.96,-0.07,10.16,0.07,-0.62,-0.03,22.74,1
-0.68,-0.66,9.75,0.02,-0.48,-0.05,22.75,1
-0.66,-0.72,10.97,-0.05,-0.36,-0.0,22.75,1
-0.6,-0.71,11.13,0.1,-0.02,-0.07,22.75,1
-0.5,-0.47,10.79,0.2,0.22,-0.11,22.74,1
-0.54,-0.22,9.69,0.2,0.31,-0.11,22.74,1
-0.42,0.09,9.39,0.2,0.26,-0.11,22.74,1
-0.66,-0.13,9.0,0.01,0.42,-0.0,22.74,1
-2.05,-0.32,8.09,-0.0,0.34,0.0,22.74,1
-1.85,0.18,8.1,0.02,0.24,0.13,22.74,1
-2.35,0.2,7.75,-0.0,0.09,0.15,22.74,1
-2.19,-0.09,7.22,-0.02,0.07,0.08,22.75,1
-2.26,0.0,7.51,-0.15,-0.0,0.16,22.74,1
-2.17,0.31,7.15,-0.14,-0.04,-0.03,22.75,1
-2.4,0.11,8.17,-0.12,-0.25,-0.19,22.74,1
-2.32,-0.4,8.66,0.01,-0.46,-0.07,22.75,1
-1.57,0.11,9.78,0.01,-0.69,0.03,22.74,1
-1.03,-0.46,10.16,0.03,-0.61,-0.05,22.75,1
-1.13,-0.55,10.97,-0.03,-0.47,-0.12,22.75,1
-0.53,-0.68,11.65,0.01,-0.05,-0.06,22.75,1
-1.03,-0.54,10.64,0.05,0.29,-0.02,22.76,1
-0.94,-0.11,9.93,0.1,0.32,-0.08,22.75,1
-1.03,-0.07,9.22,0.28,0.29,-0.11,22.76,1
-0.96,0.4,8.73,0.12,0.32,-0.02,22.77,1
-1.99,-0.32,8.09,-0.06,0.29,0.2,22.75,1
-2.11,-0.27,8.04,0.17,0.07,0.1,22.74,1
-1.94,0.53,7.66,0.08,0.08,0.18,22.75,1
-2.1,0.52,6.68,-0.12,0.26,0.06,22.74,1
-2.3,0.47,7.29,-0.04,0.11,0.06,22.74,1
-1.61,0.61,7.58,0.04,-0.14,-0.12,22.75,1
-2.35,1.25,8.55,0.1,-0.48,-0.09,22.75,1
-1.76,0.87,9.7,0.03,-0.5,0.09,22.74,1
-0.77,0.66,9.46,-0.09,-0.58,0.06,22.75,1
-0.87,0.0,10.9,-0.01,-0.7,0.05,22.75,1
-1.03,-0.49,12.3,-0.12,-0.21,-0.05,22.75,1
-0.86,-0.18,10.86,-0.05,0.22,-0.07,22.75,1
-0.56,-0.08,10.3,0.14,0.23,-0.12,22.75,1
-0.78,-0.14,9.32,0.07,0.4,-0.12,22.74,1
-1.47,0.04,9.04,0.12,0.25,-0.03,22.75,1
-1.64,-0.19,8.27,-0.14,0.38,0.08,22.74,1
-2.31,-0.05,8.43,0.03,0.23,0.2,22.74,1
-1.89,0.24,7.52,-0.02,0.12,0.15,22.74,1
-2.03,0.06,6.49,-0.07,0.12,0.08,22.74,1
-2.5,0.18,6.96,-0.02,-0.03,0.05,22.74,1
-2.03,0.49,7.39,-0.11,-0.2,-0.38,22.74,1
-1.9,-0.46,8.85,-0.29,-0.34,-0.13,22.75,1
-1.29,0.28,9.73,-0.21,-0.47,0.11,22.76,1
-1.12,-0.36,10.11,-0.35,-0.4,0.0,22.74,1
-0.98,-1.06,10.0,0.11,-0.62,-0.13,22.74,1
-0.67,-1.35,11.57,-0.02,-0.34,-0.03,22.74,1
-0.37,-0.74,10.98,0.16,0.04,-0.04,22.77,1
-0.98,-0.71,10.51,0.19,0.26,-0.02,22.76,1
-0.45,-0.5,9.7,0.23,0.29,-0.09,22.74,1
-0.66,-0.36,8.93,0.02,0.39,0.01,22.75,1
-1.81,-0.27,8.46,0.01,0.3,0.15,22.74,1
-1.56,-0.43,8.18,0.05,0.21,0.09,22.75,1
-2.09,-0.1,8.01,0.04,0.19,0.14,22.76,1
-1.81,-0.25,7.02,-0.17,0.24,0.12,22.74,1
-2.82,-0.26,7.15,0.01,0.05,-0.03,22.74,1
-2.58,0.14,7.31,-0.13,0.01,-0.08,22.74,1
-2.41,-0.73,7.86,-0.15,-0.14,-0.09,22.75,1
-2.8,-0.63,8.79,-0.04,-0.39,0.03,22.75,1
-2.03,-0.11,8.58,0.11,-0.54,-0.08,22.75,1
-1.45,-0.06,9.19,0.03,-0.67,-0.19,22.75,1
-0.43,-0.1,10.25,0.24,-0.7,-0.13,22.74,1
-0.26,-0.08,11.29,-0.01,-0.42,-0.07,22.75,1
0.15,-0.27,11.76,0.04,0.1,0.01,22.76,1
-0.26,0.02,10.6,-0.01,0.44,0.06,22.76,1
-0.78,0.32,9.62,0.03,0.48,0.05,22.77,1
-1.21,0.13,9.32,0.12,0.36,-0.09,22.75,1
-1.11,0.66,8.97,0.12,0.29,-0.02,22.75,1
-1.69,0.28,8.15,0.09,0.25,0.04,22.75,1
-2.41,0.06,8.1,0.04,0.19,0.15,22.74,1
-2.18,0.28,7.85,-0.02,0.21,0.22,22.74,1
-2.86,0.22,6.12,-0.1,0.07,0.04,22.74,1
-2.1,0.65,6.84,-0.0,-0.05,0.02,22.74,1
-2.2,0.93,7.75,-0.13,-0.15,-0.19,22.74,1
-2.35,0.7,9.09,-0.11,-0.43,-0.16,22.74,1
-1.58,0.3,9.2,0.06,-0.52,-0.07,22.75,1
-0.95,0.25,9.38,0.03,-0.62,-0.06,22.74,1
-0.73,0.3,10.0,0.04,-0.59,-0.07,22.75,1
-0.93,-0.47,10.95,-0.07,-0.38,-0.07,22.76,1
-0.58,-0.4,11.53,0.08,-0.03,-0.05,22.75,1
-0.73,-0.21,10.6,0.11,0.27,-0.04,22.76,1
-0.63,0.03,9.74,0.14,0.34,-0.14,22.77,1
-0.76,0.4,8.92,0.16,0.27,-0.05,22.76,1
-1.61,0.06,8.73,-0.02,0.18,-0.07,22.76,1
-1.24,-0.06,8.41,-0.02,0.2,0.13,22.74,1
-1.69,-0.39,8.25,0.01,0.19,0.17,22.75,1
-1.52,0.23,7.43,-0.1,0.2,0.2,22.74,1
-2.72,-0.51,6.05,0.05,0.04,0.02,22.75,1
-1.96,-0.46,7.77,0.08,-0.08,-0.16,22.75,1
-2.18,-0.38,7.96,0.02,-0.1,-0.21,22.75,1
-2.5,-0.56,8.74,-0.23,-0.31,-0.16,22.75,1
-2.23,-0.52,9.66,-0.29,-0.48,-0.02,22.75,1
-0.9,-0.23,10.1,-0.08,-0.55,-0.01,22.74,1
-0.93,-0.14,10.76,0.1,-0.51,-0.02,22.75,1
-0.67,-0.31,11.75,-0.03,-0.19,-0.12,22.74,1
-0.9,-0.31,10.84,0.13,0.13,-0.13,22.75,1
-0.74,0.02,10.25,0.06,0.39,0.04,22.75,1
-0.66,0.31,9.38,0.01,0.35,-0.11,22.75,1
-1.25,-0.18,8.25,0.08,0.33,-0.01,22.76,1
-2.3,-0.28,8.01,-0.01,0.26,0.2,22.75,1
-2.15,0.53,8.15,0.1,0.14,0.2,22.74,1
-1.94,-0.13,7.6,-0.09,0.08,0.18,22.75,1
-1.75,0.37,6.62,0.05,0.07,0.12,22.73,1
-1.67,0.74,7.03,0.21,0.02,0.02,22.74,1
-3.02,0.65,7.52,-0.19,-0.05,0.02,22.74,1
-3.19,-0.52,8.24,-0.14,-0.44,-0.08,22.74,1
-2.01,-0.38,9.18,0.03,-0.76,-0.12,22.75,1
-1.19,-0.79,10.24,-0.09,-0.63,-0.0,22.75,1
-1.13,-0.58,10.28,0.06,-0.43,-0.12,22.75,1
-0.94,-0.15,10.73,0.05,-0.32,-0.14,22.75,1
-0.23,-0.55,11.83,0.06,0.1,-0.08,22.76,1
-0.65,-0.16,9.99,0.15,0.35,-0.03,22.75,1
-0.74,-0.05,9.39,0.11,0.35,0.04,22.76,1
-0.36,0.51,8.99,0.17,0.34,0.1,22.76,1
-1.39,0.16,8.51,-0.17,0.4,0.18,22.75,1
-2.28,-0.01,8.34,-0.11,0.29,0.24,22.75,1
-2.29,0.29,8.62,0.02,0.11,0.19,22.74,1
-2.03,0.33,7.99,-0.0,0.18,0.21,22.75,1
-2.34,0.55,6.46,-0.01,0.17,-0.01,22.74,1
-2.59,0.44,7.3,0.08,-0.07,-0.09,22.75,1
-2.25,0.88,8.05,0.05,-0.14,-0.19,22.74,1
-2.11,0.44,8.48,0.04,-0.39,-0.3,22.75,1
-1.86,0.31,8.9,-0.17,-0.37,-0.14,22.75,1
-2.5,-0.37,8.61,-0.27,-0.42,0.09,22.75,1
-1.43,-0.66,10.22,-0.07,-0.62,0.02,22.75,1
-0.88,-0.76,10.61,-0.07,-0.45,-0.11,22.75,1
-0.58,-1.07,11.53,0.07,-0.16,0.01,22.75,1
-0.63,-0.57,10.81,0.18,0.24,0.02,22.76,1
-0.56,-0.11,9.76,0.23,0.29,-0.05,22.76,1
-0.86,-0.23,8.88,0.27,0.31,-0.06,22.77,1
-1.58,-0.02,8.52,0.04,0.43,0.1,22.76,1
-1.82,0.42,8.6,0.05,0.4,0.27,22.75,1
-2.02,0.77,8.53,0.05,0.3,0.17,22.76,1
-2.36,0.52,8.47,-0.03,0.32,0.12,22.75,1
-2.53,0.2,6.0,-0.06,0.16,0.01,22.75,1
-3.09,0.18,7.23,0.14,-0.12,-0.07,22.75,1
-2.98,0.23,7.04,-0.01,-0.09,-0.18,22.74,1
-3.16,-0.22,7.86,-0.07,-0.23,-0.14,22.76,1
-2.76,-0.32,8.63,0.04,-0.55,-0.07,22.75,1
-2.46,-0.38,9.02,0.02,-0.59,0.02,22.75,1
-2.07,-0.51,9.46,0.13,-0.61,-0.01,22.75,1
-1.48,-0.28,10.23,0.0,-0.54,-0.06,22.76,1
-0.94,0.01,10.76,0.07,-0.35,-0.06,22.77,1
-0.74,-0.26,11.51,0.02,-0.02,-0.02,22.77,1
-0.75,0.15,10.0,0.12,0.27,0.03,22.77,1
-0.86,0.31,9.43,0.12,0.28,-0.05,22.77,1
-1.67,-0.18,8.92,0.08,0.19,-0.1,22.75,1
-1.5,0.41,8.75,-0.04,0.31,0.08,22.76,1
-2.34,0.31,8.66,-0.08,0.25,0.15,22.75,1
-1.96,0.46,8.83,0.04,0.13,0.16,22.76,1
-2.13,0.32,7.82,-0.01,0.27,0.15,22.75,1
-2.22,0.33,6.77,-0.14,0.22,0.06,22.76,1
-2.8,0.42,7.11,-0.06,-0.01,-0.08,22.75,1
-2.43,0.49,7.09,0.03,-0.19,-0.26,22.75,1
-2.96,-0.64,8.13,0.03,-0.4,-0.17,22.75,1
-2.74,-0.92,8.55,-0.05,-0.56,-0.09,22.76,1
-1.65,-1.52,9.66,-0.19,-0.63,-0.06,22.75,1
-1.69,-0.82,10.0,0.02,-0.59,0.0,22.76,1
-1.21,-0.62,11.43,0.02,-0.41,-0.11,22.75,1
-0.53,-0.68,11.05,0.09,0.1,-0.06,22.76,1
-1.68,-0.92,9.73,0.2,0.15,-0.01,22.77,1
-0.57,-0.21,9.68,0.23,0.19,-0.11,22.76,1
-1.09,0.04,9.07,0.3,0.27,-0.12,22.75,1
-1.66,0.07,8.52,0.14,0.26,0.1,22.75,1
-2.07,0.35,8.4,-0.02,0.25,0.19,22.77,1
-2.4,0.38,8.61,-0.06,0.18,0.19,22.76,1
-2.35,-0.16,7.85,-0.19,0.22,0.15,22.76,1
-2.27,0.3,6.74,-0.01,-0.02,0.02,22.76,1
-2.37,-0.21,7.22,0.12,-0.09,-0.06,22.75,1
-2.29,0.55,7.45,0.07,-0.18,-0.2,22.74,1
-2.65,0.42,8.43,0.02,-0.28,-0.19,22.75,1
-2.12,-0.38,9.21,-0.17,-0.46,-0.08,22.77,1
-1.51,-0.09,9.47,-0.08,-0.48,0.03,22.77,1
-1.1,-0.34,9.68,-0.05,-0.52,0.07,22.77,1
-0.75,0.11,10.61,-0.05,-0.4,0.06,22.77,1
-0.89,-0.54,11.37,-0.1,-0.17,-0.0,22.77,1
-0.58,-0.21,10.87,0.09,0.09,-0.08,22.77,1
-0.29,-0.0,9.99,0.13,0.39,0.02,22.77,1
-1.14,0.06,9.16,0.17,0.35,-0.13,22.77,1
-1.29,-0.0,8.78,0.04,0.38,-0.04,22.76,1
-1.56,0.59,8.72,-0.05,0.34,0.15,22.76,1
-2.22,0.32,8.65,-0.13,0.29,0.11,22.77,1
-2.13,0.56,8.31,0.05,0.21,0.13,22.77,1
-2.2,0.35,7.47,-0.06,0.12,0.11,22.76,1
-2.33,0.73,6.83,0.05,0.01,0.02,22.76,1
-2.34,0.34,7.08,0.12,-0.06,-0.12,22.76,1
-0.55,-1.99,10.91,-0.15,-0.44,-0.51,22.75,2
-1.25,-3.44,11.04,0.02,-0.06,-0.12,22.75,2
-0.04,-2.38,10.94,0.15,0.09,0.11,22.77,2
-0.65,-1.71,9.8,-0.01,0.34,0.43,22.77,2
-0.46,-0.16,9.63,-0.11,0.4,0.57,22.78,2
-0.65,0.1,8.93,-0.32,0.46,0.6,22.76,2
-1.75,-0.91,8.33,-0.45,0.35,0.63,22.76,2
-1.7,-0.44,7.55,0.03,0.07,0.88,22.77,2
-1.03,1.35,8.25,-0.02,-0.09,0.62,22.77,2
-0.56,1.22,7.62,-0.16,0.11,0.4,22.77,2
-1.49,0.81,7.49,0.06,0.1,-0.08,22.76,2
-1.65,0.6,7.66,-0.02,0.07,-0.46,22.77,2
-2.3,-0.55,8.56,0.08,-0.17,-0.79,22.77,2
-2.49,-1.42,8.54,0.19,-0.22,-0.89,22.77,2
-1.76,-2.15,8.97,0.15,-0.64,-0.82,22.77,2
-0.86,-2.06,9.39,-0.06,-0.53,-0.55,22.77,2
-0.76,-2.41,10.36,-0.09,-0.53,-0.57,22.77,2
-0.79,-3.37,10.92,-0.15,-0.25,-0.47,22.78,2
-0.95,-3.69,10.92,0.15,-0.08,0.04,22.78,2
-0.37,-3.32,10.93,0.31,0.19,0.35,22.78,2
0.27,-2.1,10.5,0.07,0.6,0.73,22.77,2
-0.76,-0.54,8.32,-0.12,0.72,0.97,22.78,2
-1.78,-0.16,7.99,0.07,0.36,0.86,22.76,2
-1.86,0.37,8.77,-0.03,0.22,0.67,22.77,2
-1.92,0.18,7.99,-0.32,-0.07,0.31,22.78,2
-2.33,-0.39,7.75,-0.16,-0.09,0.41,22.78,2
-0.17,1.53,7.23,0.17,-0.03,0.46,22.77,2
-1.61,1.67,7.32,-0.01,0.24,0.18,22.78,2
-1.45,0.22,7.41,-0.39,0.15,-0.49,22.78,2
-2.59,-1.58,8.48,0.06,-0.26,-0.7,22.78,2
-2.7,-1.48,8.99,0.4,-0.41,-0.69,22.77,2
-2.04,-1.23,9.12,0.25,-0.49,-0.65,22.78,2
-0.34,-1.23,9.68,0.17,-0.62,-0.72,22.78,2
-0.18,-1.53,10.11,-0.05,-0.61,-0.53,22.77,2
-0.62,-2.77,11.07,-0.28,-0.21,-0.32,22.78,2
-0.25,-3.11,11.72,0.14,-0.0,-0.07,22.78,2
-0.18,-2.92,10.28,0.23,0.33,0.11,22.78,2
-1.17,-1.85,8.79,0.17,0.51,0.45,22.78,2
-1.33,-0.58,8.75,0.01,0.33,0.52,22.78,2
-2.26,-0.37,9.44,0.12,0.17,0.42,22.77,2
-2.04,-0.06,8.67,0.06,0.07,0.45,22.77,2
-1.32,0.83,8.47,0.04,0.1,0.68,22.77,2
-1.57,1.05,7.94,-0.06,-0.1,0.42,22.76,2
-0.32,1.22,7.93,-0.2,0.0,0.5,22.77,2
-1.26,1.93,7.64,0.08,0.19,0.08,22.77,2
-1.59,1.13,8.08,-0.22,0.12,-0.13,22.77,2
-2.19,-0.36,8.21,0.05,0.04,-0.27,22.77,2
-2.35,0.37,8.78,0.53,-0.3,-0.58,22.78,2
-1.98,1.0,8.67,0.35,-0.17,-0.46,22.77,2
-1.51,-0.16,8.83,0.0,-0.2,-0.41,22.77,2
-0.85,0.12,9.25,0.04,-0.46,-0.2,22.78,2
-0.8,-0.31,9.94,-0.35,-0.27,-0.18,22.77,2
-1.33,-1.36,10.54,-0.35,-0.43,-0.45,22.79,2
-0.95,-3.11,11.48,-0.16,-0.2,-0.22,22.79,2
-2.11,-2.41,10.86,0.14,-0.01,-0.08,22.78,2
-0.46,-1.81,10.06,0.49,0.15,0.07,22.77,2
-0.61,-0.96,8.98,0.13,0.34,0.15,22.77,2
-0.09,-0.11,8.8,0.18,0.22,0.44,22.78,2
-0.97,0.12,8.41,-0.33,0.16,0.03,22.77,2
-1.34,0.08,8.9,-0.29,0.18,0.44,22.77,2
-1.5,-0.45,8.63,-0.29,-0.01,0.3,22.77,2
-0.77,-0.03,8.63,-0.05,0.01,0.53,22.76,2
-0.42,1.24,7.3,-0.13,0.1,0.48,22.77,2
-1.89,0.82,7.49,0.17,0.13,0.2,22.77,2
-2.17,1.17,7.97,0.26,0.07,-0.24,22.78,2
-2.61,0.01,8.46,-0.17,0.03,-0.63,22.77,2
-1.71,-0.4,8.74,0.02,-0.09,-0.75,22.78,2
-1.67,-0.27,8.15,0.27,-0.29,-0.81,22.79,2
-1.66,-0.86,8.68,0.37,-0.48,-0.74,22.78,2
-0.48,-1.09,9.53,0.12,-0.51,-0.55,22.79,2
-0.36,-1.36,9.98,0.04,-0.48,-0.37,22.78,2
-0.47,-1.62,11.04,0.03,-0.49,-0.36,22.79,2
-0.26,-2.99,11.77,0.06,-0.02,-0.0,22.79,2
-0.2,-2.43,10.44,0.09,0.29,0.25,22.79,2
-0.07,-0.82,9.72,0.15,0.42,0.5,22.78,2
-0.62,0.84,9.07,0.13,0.28,0.4,22.78,2
-0.68,0.89,8.77,-0.11,0.07,-0.07,22.78,2
-0.81,0.15,8.66,-0.29,0.09,0.09,22.77,2
-0.58,0.26,8.41,-0.06,0.1,0.44,22.77,2
-1.23,0.21,8.27,-0.05,0.14,0.59,22.77,2
-1.08,1.95,7.23,-0.1,0.1,0.47,22.77,2
-2.15,1.25,7.68,-0.07,0.08,0.02,22.78,2
-1.2,1.55,7.3,0.22,0.12,0.0,22.77,2
-1.89,0.89,8.12,-0.18,0.12,-0.06,22.78,2
-2.21,-0.93,9.64,-0.09,-0.22,-0.45,22.77,2
-2.03,-1.47,9.44,0.15,-0.3,-0.47,22.78,2
-1.22,-0.57,9.12,0.44,-0.58,-0.4,22.77,2
-0.76,-0.41,9.92,0.07,-0.35,-0.31,22.78,2
-1.13,-0.55,9.94,-0.12,-0.15,-0.23,22.78,2
-1.21,-1.72,10.89,-0.1,-0.16,-0.19,22.78,2
-1.11,-1.38,10.28,-0.04,-0.05,-0.05,22.78,2
-0.71,-2.47,10.73,0.11,-0.07,-0.04,22.79,2
-0.16,-1.67,9.17,0.18,0.17,0.25,22.79,2
-1.01,0.24,8.79,0.12,0.0,0.29,22.78,2
-0.8,1.13,8.8,-0.13,-0.09,0.14,22.78,2
-0.59,1.7,8.08,-0.3,0.0,0.02,22.77,2
-0.61,1.05,8.57,-0.85,0.12,0.22,22.77,2
-0.68,-0.13,7.96,-0.13,-0.17,0.1,22.77,2
-1.01,-0.68,8.83,0.4,-0.02,0.16,22.77,2
-0.91,0.99,8.58,0.19,0.12,0.15,22.77,2
-0.6,1.17,8.1,0.15,0.15,0.05,22.77,2
-1.5,0.62,8.96,-0.11,-0.02,-0.21,22.77,2
-0.84,0.44,9.24,0.08,-0.17,-0.53,22.77,2
-0.69,0.25,9.01,-0.11,-0.17,-0.44,22.77,2
-0.5,-0.99,9.78,-0.11,-0.3,-0.28,22.78,2
-0.4,-1.29,10.21,-0.1,-0.31,-0.28,22.77,2
-0.41,-2.94,11.46,-0.24,-0.08,-0.28,22.78,2
-0.18,-2.12,10.07,-0.04,0.37,0.24,22.77,2
-1.14,-1.51,9.09,-0.1,0.5,0.55,22.77,2
-1.53,-1.3,9.18,-0.12,0.58,0.58,22.78,2
-1.82,-0.65,9.04,-0.04,0.41,0.82,22.77,2
-2.64,-1.2,8.87,-0.08,0.21,0.7,22.77,2
-2.3,-0.78,9.53,0.37,-0.23,0.42,22.76,2
-1.44,0.72,8.6,0.29,-0.08,0.37,22.77,2
-1.67,1.13,7.81,0.16,-0.02,0.5,22.76,2
-1.97,1.15,7.82,0.12,-0.04,0.44,22.76,2
-1.16,2.9,6.85,-0.03,0.0,0.17,22.77,2
-1.4,2.47,6.92,-0.1,-0.01,-0.15,22.77,2
-2.1,0.66,7.91,-0.06,-0.21,-0.45,22.78,2
-1.78,0.04,9.0,0.11,-0.44,-0.8,22.79,2
-1.86,-0.6,9.2,0.1,-0.35,-0.55,22.77,2
-1.74,-0.05,8.83,0.19,-0.45,-0.44,22.77,2
-0.38,0.77,9.57,0.21,-0.61,-0.39,22.76,2
-0.11,-0.2,10.67,-0.06,-0.66,-0.47,22.77,2
-0.14,-2.04,12.13,-0.11,-0.12,-0.21,22.77,2
-0.21,-1.49,10.76,-0.11,0.14,-0.01,22.77,2
-0.05,-0.95,9.65,0.05,0.2,0.22,22.77,2
0.25,0.03,9.46,0.21,0.23,0.51,22.77,2
0.06,0.94,9.13,0.15,0.28,0.41,22.76,2
-0.57,1.57,8.59,-0.02,0.22,0.19,22.77,2
-1.54,1.08,8.41,-0.16,0.01,0.17,22.75,2
-0.83,1.64,8.56,0.05,0.06,0.45,22.76,2
-1.0,2.39,7.19,-0.11,0.14,0.41,22.75,2
-1.16,2.03,7.48,0.05,0.09,0.08,22.76,2
-1.31,3.14,7.3,0.09,0.04,-0.16,22.76,2
-2.05,1.66,8.13,-0.09,-0.01,-0.13,22.77,2
-0.78,1.7,8.68,0.25,-0.32,-0.5,22.76,2
-1.09,0.39,9.16,-0.19,-0.39,-0.69,22.77,2
-1.19,-1.28,10.18,-0.29,-0.51,-0.49,22.77,2
-0.54,-0.79,10.19,0.05,-0.54,-0.36,22.77,2
-0.2,-2.36,11.45,-0.07,-0.03,0.02,22.76,2
0.31,-2.1,11.18,-0.05,0.29,0.27,22.78,2
0.24,-0.66,9.92,-0.19,0.45,0.39,22.77,2
-0.43,0.17,8.72,0.0,0.38,0.58,22.76,2
-0.98,1.15,8.57,0.11,0.24,0.43,22.76,2
-1.15,0.78,8.75,-0.06,0.11,0.28,22.74,2
-1.18,0.99,8.36,-0.26,0.22,0.21,22.74,2
-1.71,0.53,7.96,-0.05,0.01,0.15,22.76,2
-0.97,1.67,6.93,-0.06,0.03,0.15,22.76,2
-1.81,1.96,7.57,0.17,-0.05,0.01,22.76,2
-0.88,1.64,7.86,-0.29,0.16,-0.22,22.76,2
-2.71,-0.83,8.25,0.0,-0.34,-0.7,22.75,2
-1.8,-0.35,9.04,0.05,-0.6,-0.7,22.76,2
-0.27,-1.2,9.58,0.05,-0.78,-0.55,22.76,2
0.7,-0.9,9.9,0.04,-0.66,-0.45,22.77,2
0.86,-1.36,10.65,-0.09,-0.53,-0.36,22.76,2
0.39,-2.61,10.99,-0.06,-0.13,-0.15,22.77,2
0.33,-2.42,10.66,0.09,0.09,0.09,22.76,2
0.38,-2.25,10.78,0.25,0.28,0.22,22.77,2
-0.11,-0.42,9.77,0.17,0.33,0.13,22.76,2
-0.53,0.02,9.56,0.01,0.2,0.06,22.76,2
0.26,0.89,8.79,-0.09,0.35,0.14,22.75,2
-0.93,0.5,8.28,-0.25,0.31,0.18,22.75,2
-1.22,-0.68,8.14,-0.15,0.25,0.27,22.74,2
-1.71,0.71,7.35,0.12,0.02,0.66,22.74,2
-0.85,2.11,7.07,-0.06,-0.06,0.15,22.75,2
-1.05,1.78,7.36,0.07,0.16,0.29,22.74,2
-1.84,0.56,7.9,-0.01,-0.1,-0.45,22.74,2
-2.19,-0.44,8.36,0.07,-0.38,-0.67,22.76,2
-2.06,-1.69,9.23,0.03,-0.46,-0.53,22.76,2
-1.96,-1.85,9.11,0.05,-0.59,-0.59,22.77,2
-0.21,-1.61,9.62,-0.05,-0.79,-0.68,22.77,2
0.17,-2.24,10.69,-0.09,-0.63,-0.49,22.76,2
0.85,-3.65,11.8,0.05,-0.22,-0.18,22.75,2
0.51,-3.06,10.47,0.16,0.18,0.05,22.77,2
0.75,-2.06,9.87,0.21,0.29,0.3,22.75,2
0.29,-0.31,9.36,0.17,0.25,0.28,22.76,2
-0.18,0.6,8.94,0.17,0.3,0.41,22.75,2
-0.43,0.51,8.94,-0.22,0.36,0.2,22.75,2
-1.27,-0.42,8.71,0.01,0.28,0.46,22.75,2
-1.12,0.7,8.36,0.09,0.29,0.59,22.75,2
-0.96,1.81,6.71,0.01,0.11,0.4,22.75,2
-1.46,1.73,7.11,-0.17,0.13,0.31,22.74,2
-1.41,2.16,6.83,0.27,-0.05,-0.06,22.75,2
-1.87,0.95,8.66,-0.27,-0.12,-0.27,22.76,2
-1.0,-0.44,9.43,-0.14,-0.38,-0.57,22.76,2
-1.73,-0.58,9.14,0.08,-0.64,-0.37,22.75,2
0.53,-0.39,10.08,0.05,-0.63,-0.59,22.75,2
0.28,-2.72,10.82,-0.17,-0.53,-0.48,22.76,2
0.52,-3.0,11.52,-0.17,-0.02,-0.14,22.76,2
0.02,-2.43,10.61,0.15,0.09,0.07,22.76,2
0.12,-2.23,10.47,0.11,0.23,0.28,22.76,2
0.1,-1.29,9.7,0.13,0.2,0.3,22.76,2
0.3,0.29,8.94,0.07,0.36,0.55,22.76,2
-0.38,0.53,8.13,-0.04,0.37,0.47,22.74,2
-0.69,0.14,8.26,-0.02,0.16,0.18,22.74,2
-0.88,0.51,8.82,0.17,0.13,0.49,22.74,2
-0.83,1.86,7.37,-0.06,-0.0,0.38,22.76,2
-1.25,1.31,7.31,-0.3,0.12,0.05,22.74,2
-1.35,0.82,7.71,-0.09,0.21,-0.05,22.75,2
-1.75,0.3,8.92,0.01,-0.0,-0.24,22.75,2
-0.74,-0.16,9.42,-0.03,-0.23,-0.3,22.75,2
-1.4,-0.82,9.21,-0.01,-0.16,-0.19,22.76,2
-0.74,-0.07,9.49,0.1,-0.44,-0.26,22.76,2
-0.38,-1.5,10.03,-0.15,-0.5,-0.45,22.77,2
0.32,-1.39,10.78,0.05,-0.52,-0.32,22.77,2
-0.23,-3.03,11.45,-0.07,-0.04,-0.11,22.77,2
-0.11,-2.54,10.88,0.0,0.13,0.28,22.76,2
0.4,-1.19,10.2,-0.02,0.33,0.46,22.76,2
-0.07,-0.05,9.62,0.01,0.4,0.43,22.76,2
-0.36,0.4,9.03,0.1,0.34,0.16,22.75,2
-0.99,0.37,8.39,-0.13,0.44,0.29,22.75,2
-1.28,-0.05,8.42,0.12,0.27,0.45,22.74,2
-1.79,1.41,7.58,0.31,0.25,0.58,22.74,2
-1.26,2.21,7.04,-0.01,0.07,0.39,22.74,2
-1.44,1.91,6.9,0.11,-0.0,0.08,22.76,2
-1.59,2.26,7.37,-0.12,0.02,0.07,22.75,2
-1.49,0.57,8.92,-0.36,-0.37,-0.66,22.75,2
-0.64,-0.6,9.68,-0.14,-0.55,-0.6,22.74,2
-1.15,-1.47,9.57,0.01,-0.53,-0.3,22.75,2
-0.51,-1.35,10.2,-0.13,-0.58,-0.24,22.76,2
0.88,-1.77,11.12,-0.2,-0.49,-0.38,22.77,2
0.38,-2.98,11.0,-0.1,-0.09,-0.17,22.76,2
0.37,-2.97,11.18,0.22,0.1,0.19,22.76,2
0.25,-1.71,10.47,0.09,0.42,0.25,22.75,2
-0.13,-0.35,9.18,0.2,0.29,0.14,22.75,2
-0.74,-0.31,8.93,-0.04,0.17,-0.03,22.75,2
-0.05,0.64,8.69,0.04,0.2,0.19,22.75,2
-0.73,0.5,8.91,-0.02,0.24,0.47,22.75,2
-1.49,0.41,8.19,-0.03,0.19,0.71,22.74,2
0.14,1.71,7.48,0.16,0.06,0.65,22.74,2
-1.43,2.14,6.75,0.08,0.12,0.15,22.74,2
-0.82,2.15,7.87,0.02,0.03,-0.33,22.75,2
-1.8,1.14,8.14,-0.06,-0.15,-0.53,22.74,2
-1.31,-0.86,9.23,-0.32,-0.26,-0.73,22.75,2
-1.95,-1.05,8.77,0.1,-0.38,-0.79,22.75,2
-0.59,-0.71,9.07,0.28,-0.9,-0.6,22.74,2
0.51,-0.49,10.21,-0.05,-0.88,-0.85,22.75,2
0.93,-1.71,11.0,-0.2,-0.4,-0.39,22.74,2
0.64,-3.01,11.05,-0.07,0.01,0.06,22.74,2
0.11,-2.79,11.21,-0.0,0.24,0.31,22.75,2
0.17,-1.88,10.26,0.06,0.51,0.5,22.76,2
-0.04,-0.74,8.99,0.05,0.54,0.51,22.75,2
0.1,0.56,8.53,0.2,0.33,0.68,22.74,2
-0.7,0.2,8.59,-0.18,0.01,0.03,22.74,2
-0.7,-0.2,8.64,0.09,0.1,0.4,22.74,2
-0.79,1.01,8.29,-0.02,0.11,0.57,22.74,2
-0.75,0.22,7.68,-0.1,-0.02,0.22,22.74,2
-0.84,1.7,7.3,0.2,0.04,0.16,22.74,2
-1.72,1.77,7.44,-0.05,0.24,0.39,22.74,2
-1.57,0.46,8.29,-0.05,-0.11,-0.51,22.74,2
-0.78,-0.73,9.38,-0.02,-0.37,-0.54,22.74,2
-1.12,-1.76,9.94,-0.29,-0.26,-0.41,22.74,2
-0.51,-1.17,9.58,-0.02,-0.61,-0.39,22.74,2
0.33,-1.13,10.0,0.14,-0.64,-0.45,22.74,2
0.84,-1.82,10.72,-0.23,-0.38,-0.35,22.75,2
0.14,-3.45,11.52,0.04,0.01,0.02,22.74,2
0.71,-2.82,11.41,0.08,0.29,0.12,22.75,2
0.24,-1.06,9.91,0.18,0.47,0.34,22.75,2
-0.02,0.42,9.04,0.17,0.45,0.25,22.74,2
0.02,0.91,8.39,0.05,0.4,0.19,22.73,2
-0.99,0.03,8.82,-0.42,0.36,0.52,22.74,2
-1.6,0.62,8.33,0.23,-0.01,0.5,22.73,2
-1.08,1.24,7.83,-0.02,0.02,0.57,22.72,2
-0.3,2.28,7.08,0.08,0.06,0.19,22.74,2
-0.99,1.82,7.37,-0.03,0.18,-0.16,22.74,2
-1.57,0.85,7.45,-0.12,-0.0,-0.41,22.73,2
-2.42,-0.1,8.15,-0.03,-0.46,-0.61,22.74,2
-1.38,-1.17,8.64,-0.18,-0.57,-0.63,22.74,2
-0.85,-1.79,9.69,-0.08,-0.73,-0.55,22.73,2
0.03,-2.16,10.43,0.15,-0.43,-0.36,22.75,2
0.3,-2.84,10.79,-0.13,-0.29,-0.17,22.74,2
0.28,-2.61,10.9,0.11,-0.03,0.05,22.74,2
-0.04,-2.69,11.54,0.21,0.09,0.04,22.74,2
0.46,-1.99,10.62,0.29,0.27,0.15,22.74,2
0.49,0.04,9.23,0.11,0.29,-0.07,22.74,2
0.34,1.15,8.63,0.24,0.16,0.23,22.73,2
0.01,1.34,8.43,-0.12,0.01,0.13,22.72,2
-0.24,1.02,8.67,-0.1,0.11,0.33,22.72,2
-0.34,0.69,8.27,-0.16,0.11,0.43,22.74,2
-0.36,1.8,6.93,0.01,0.04,0.26,22.73,2
-0.79,1.38,7.53,0.09,0.07,0.18,22.73,2
-0.98,1.82,7.74,-0.07,0.01,-0.21,22.73,2
-1.25,-0.3,8.88,-0.18,-0.22,-0.41,22.73,2
-0.07,-0.6,9.35,-0.05,-0.38,-0.39,22.74,2
0.35,-0.25,9.2,-0.07,-0.14,-0.1,22.74,2
-0.2,-0.78,9.33,0.04,-0.38,-0.35,22.74,2
1.15,-1.07,10.13,0.0,-0.45,-0.38,22.75,2
0.63,-3.23,11.37,-0.36,-0.41,-0.47,22.74,2
0.8,-3.48,10.81,0.1,0.04,0.07,22.74,2
0.73,-2.53,10.49,0.3,0.24,0.21,22.74,2
0.81,-1.27,10.18,0.11,0.56,0.48,22.75,2
0.31,-0.07,9.11,0.02,0.36,0.14,22.74,2
-1.02,-0.43,8.62,-0.11,0.38,0.22,22.74,2
-0.65,0.11,9.0,0.1,0.04,-0.05,22.73,2
-0.77,0.88,8.92,0.13,0.22,0.35,22.73,2
-1.56,0.86,7.89,-0.16,0.24,0.39,22.72,2
-1.41,1.01,6.25,-0.03,0.0,0.29,22.73,2
-1.92,1.67,7.03,-0.15,-0.07,0.12,22.73,2
-1.11,2.34,7.3,0.07,-0.11,-0.29,22.73,2
-1.21,1.61,8.64,-0.04,-0.3,-0.52,22.74,2
-1.31,-1.05,9.36,-0.05,-0.53,-0.69,22.74,2
0.37,-0.91,9.37,0.06,-0.45,-0.35,22.73,2
0.26,-1.3,9.79,0.04,-0.44,-0.23,22.73,2
0.02,-1.75,10.5,0.19,-0.41,-0.16,22.74,2
-0.31,-2.92,11.75,-0.28,-0.19,-0.32,22.74,2
0.16,-2.29,10.88,0.12,0.08,0.08,22.74,2
-0.28,-1.93,10.97,0.14,0.22,0.23,22.74,2
0.42,0.14,10.26,-0.21,0.29,0.17,22.74,2
0.47,0.34,8.94,-0.12,0.25,0.11,22.73,2
0.53,0.61,8.99,0.12,0.14,0.1,22.72,2
-0.32,0.55,8.38,0.09,0.26,0.55,22.72,2
-1.13,0.6,8.05,0.11,0.1,0.57,22.73,2
-0.76,1.27,7.05,0.11,-0.04,0.48,22.72,2
-0.11,2.39,7.03,-0.17,0.13,0.18,22.72,2
-0.8,2.34,7.81,0.04,0.08,-0.37,22.73,2
-1.54,-0.09,8.03,-0.18,-0.1,-0.53,22.72,2
-1.04,-0.74,8.98,-0.06,-0.47,-0.6,22.73,2
-1.21,-1.79,9.79,-0.17,-0.23,-0.32,22.73,2
-0.45,-0.59,9.81,0.37,-0.66,-0.38,22.73,2
0.02,-1.39,10.51,0.12,-0.5,-0.46,22.73,2
0.65,-2.08,11.26,-0.12,-0.29,-0.22,22.74,2
0.42,-2.15,10.82,-0.01,0.11,0.18,22.73,2
-0.13,-2.35,10.98,0.01,0.29,0.31,22.73,2
0.61,-0.69,9.59,0.11,0.45,0.57,22.74,2
-0.39,0.03,9.44,0.29,0.19,0.35,22.73,2
0.15,1.45,9.24,0.2,0.19,0.13,22.72,2
-0.49,0.77,8.8,-0.36,0.1,-0.1,22.72,2
-0.27,-0.03,8.26,-0.02,-0.03,0.09,22.72,2
0.11,0.68,7.99,0.2,-0.08,0.23,22.72,2
-0.26,2.1,7.2,0.1,0.2,0.25,22.72,2
-0.58,1.89,7.55,-0.14,0.23,0.14,22.72,2
-1.58,1.44,7.47,-0.3,0.09,-0.57,22.73,2
-1.86,0.25,8.24,-0.17,-0.35,-0.54,22.74,2
-0.3,-0.65,9.3,-0.07,-0.6,-0.07,22.73,2
0.33,-1.04,10.27,-0.16,-0.33,0.05,22.74,2
-0.08,-1.33,9.78,0.03,-0.18,-0.25,22.72,2
0.6,-1.82,10.33,0.16,-0.5,-0.3,22.72,2
0.83,-2.1,11.3,-0.11,-0.19,-0.12,22.74,2
0.54,-2.68,11.1,0.07,0.13,0.06,22.72,2
0.2,-2.18,10.56,0.24,0.38,0.32,22.73,2
0.06,-0.44,9.32,0.13,0.16,0.17,22.74,2
-0.59,0.05,9.51,0.16,0.15,0.31,22.72,2
0.38,1.57,9.41,0.31,0.15,0.1,22.72,2
0.23,1.69,8.31,-0.04,0.28,0.33,22.72,2
-0.46,1.26,8.16,0.08,0.24,0.4,22.72,2
-0.81,1.52,7.79,-0.13,-0.02,0.45,22.73,2
-0.43,2.63,7.23,0.18,0.13,0.24,22.74,2
-0.67,2.63,6.85,0.09,0.19,-0.15,22.73,2
-1.37,1.5,7.87,0.02,0.02,-0.52,22.73,2
-1.81,-0.08,8.81,-0.0,-0.28,-0.75,22.72,2
-1.24,-0.88,9.5,-0.19,-0.54,-0.56,22.74,2
-1.44,-2.76,9.49,-0.4,-0.4,-0.59,22.73,2
-0.48,-2.27,10.28,-0.08,-0.47,-0.45,22.73,2
0.51,-1.98,10.31,-0.01,-0.43,-0.32,22.72,2
0.22,-2.16,10.47,0.0,-0.19,-0.11,22.73,2
0.07,-3.08,11.07,0.12,0.04,0.06,22.74,2
0.37,-2.74,10.49,0.26,0.22,0.26,22.73,2
0.04,-0.73,9.54,0.05,0.17,0.34,22.73,2
0.2,0.05,8.88,0.05,0.15,0.43,22.73,2
0.08,0.02,8.63,0.11,0.18,0.49,22.72,2
-0.01,0.73,8.27,0.04,0.21,0.63,22.72,2
-0.6,1.05,7.78,0.24,0.08,0.69,22.72,2
-0.14,2.55,7.12,0.11,-0.01,0.33,22.72,2
-0.81,1.67,7.64,-0.24,0.13,0.02,22.72,2
-0.95,1.39,7.76,-0.22,0.29,-0.24,22.72,2
-0.92,-0.53,8.92,-0.05,-0.06,-0.37,22.72,2
-1.57,-0.71,8.69,-0.23,-0.15,-0.33,22.72,2
-0.79,-1.01,9.93,-0.04,-0.36,-0.47,22.73,2
-0.36,-1.64,9.98,0.25,-0.48,-0.6,22.72,2
0.35,-1.31,9.26,-0.06,-0.32,-0.38,22.73,2
0.75,-1.92,10.41,0.05,-0.58,-0.43,22.74,2
0.56,-2.95,11.98,-0.09,-0.07,-0.02,22.73,2
0.48,-2.99,10.89,-0.04,0.33,0.21,22.73,2
0.65,-1.81,10.26,0.33,0.27,0.46,22.73,2
1.01,-0.19,9.42,-0.04,0.31,0.33,22.72,2
0.81,0.14,8.98,0.27,0.2,0.37,22.72,2
0.26,1.17,8.77,0.1,0.53,0.71,22.71,2
-0.93,0.74,8.13,-0.3,0.4,0.84,22.72,2
-1.46,0.74,8.01,-0.25,0.31,0.74,22.72,2
-0.71,2.24,6.8,0.13,0.03,0.29,22.71,2
-0.38,1.41,7.58,-0.21,0.04,0.03,22.71,2
-1.12,0.36,7.67,-0.34,0.23,-0.15,22.7,2
-2.26,-1.18,8.6,-0.04,-0.31,-0.65,22.71,2
-1.43,-0.65,9.04,0.14,-0.52,-0.54,22.71,2
-0.8,-1.98,9.28,-0.17,-0.59,-0.5,22.71,2
-0.4,-1.19,10.02,0.18,-0.48,-0.31,22.72,2
0.04,-1.93,10.89,-0.29,-0.34,-0.41,22.72,2
0.65,-2.66,10.66,-0.14,-0.09,-0.2,22.71,2
0.08,-2.6,10.58,0.03,0.12,0.1,22.72,2
0.49,-2.45,10.78,0.44,0.19,0.19,22.72,2
-0.75,-0.75,9.96,0.2,0.37,0.37,22.72,2
0.02,0.58,9.36,0.09,0.09,0.24,22.72,2
0.56,0.76,8.77,0.11,0.25,0.41,22.71,2
-0.62,1.32,8.36,0.23,0.11,0.32,22.71,2
-0.76,0.83,8.28,-0.07,0.14,0.58,22.7,2
-1.05,1.95,7.18,0.19,-0.0,0.64,22.71,2
-0.17,2.65,7.07,-0.18,0.04,0.2,22.71,2
-0.35,2.61,7.19,-0.04,0.09,-0.31,22.71,2
-1.65,0.35,8.34,-0.36,0.0,-0.85,22.71,2
-1.17,-0.82,9.1,-0.08,-0.39,-0.83,22.72,2
-0.51,-1.78,9.9,-0.45,-0.15,-0.47,22.71,2
-0.17,-1.64,9.76,0.09,-0.55,-0.31,22.72,2
0.82,-2.01,10.85,0.19,-0.65,-0.47,22.72,2
0.93,-2.74,11.28,-0.01,-0.22,-0.23,22.72,2
0.43,-3.0,10.4,0.13,0.18,0.12,22.72,2
0.3,-2.68,10.17,0.22,0.16,0.14,22.7,2
0.45,-0.6,10.31,0.16,0.33,0.39,22.72,2
0.39,0.14,9.0,0.17,0.23,0.46,22.72,2
0.55,0.51,8.64,-0.03,0.28,0.57,22.7,2
-0.11,0.49,8.91,-0.18,0.32,0.61,22.7,2
-0.31,0.71,8.19,-0.15,0.17,0.41,22.7,2
-0.47,1.71,6.9,0.22,-0.03,0.54,22.69,2
-0.65,2.17,7.47,-0.09,0.11,0.1,22.7,2
-0.31,2.17,7.99,-0.24,0.16,-0.22,22.7,2
-1.31,0.4,8.37,-0.3,0.14,-0.47,22.7,2
-1.06,-1.19,8.83,-0.07,-0.31,-0.69,22.7,2
-0.6,-1.64,9.51,-0.01,-0.46,-0.47,22.71,2
0.05,-1.43,9.36,0.03,-0.64,-0.47,22.72,2
1.1,-1.28,10.23,0.04,-0.54,-0.39,22.7,2
1.11,-1.89,10.76,-0.15,-0.33,-0.34,22.7,2
1.17,-2.67,11.11,-0.01,-0.03,-0.0,22.7,2
0.42,-2.92,11.29,0.01,0.33,0.27,22.71,2
0.87,-1.85,10.53,0.27,0.3,0.34,22.71,2
1.09,-0.09,8.89,-0.02,0.28,0.4,22.71,2
0.97,0.41,8.8,0.22,0.28,0.6,22.71,2
-0.05,0.88,8.54,0.05,0.31,0.6,22.7,2
-0.09,0.55,8.58,-0.06,0.18,0.55,22.7,2
-0.57,1.39,7.5,0.11,0.17,0.57,22.7,2
-0.34,1.61,7.26,-0.07,0.04,0.22,22.71,2
-0.37,1.5,7.87,-0.15,0.17,-0.14,22.71,2
-1.21,0.91,7.36,-0.15,0.09,-0.35,22.7,2
-1.13,0.16,8.17,0.03,-0.45,-0.55,22.71,2
-0.61,-1.65,9.44,-0.65,-0.53,-0.77,22.71,2
0.37,-1.5,10.2,-0.07,-0.15,-0.43,22.71,2
-0.6,-2.26,9.52,-0.04,-0.14,-0.44,22.7,2
0.1,-2.37,10.06,0.17,-0.46,-0.33,22.71,2
0.78,-2.01,10.17,0.21,-0.29,-0.17,22.72,2
0.65,-2.27,10.32,-0.06,-0.09,-0.16,22.7,2
0.46,-3.25,11.71,0.21,0.1,0.18,22.72,2
0.58,-1.92,10.18,0.26,0.25,0.43,22.71,2
0.6,-0.47,9.57,0.31,0.05,0.5,22.7,2
1.43,0.63,9.05,0.55,0.11,0.52,22.7,2
0.08,1.3,9.07,0.14,0.48,0.42,22.69,2
-0.7,1.48,8.54,-0.03,0.42,0.56,22.69,2
-0.98,1.42,8.03,-0.02,0.26,0.5,22.7,2
-0.84,2.07,6.51,0.02,0.03,0.39,22.7,2
-0.31,2.34,7.17,-0.05,0.1,0.01,22.7,2
-0.88,2.64,7.57,-0.14,0.14,-0.41,22.7,2
-1.11,0.94,8.86,-0.05,-0.31,-0.73,22.7,2
-0.07,0.84,9.7,-0.13,-0.37,-0.65,22.7,2
-0.62,-1.13,9.67,-0.37,-0.25,-0.49,22.7,2
-0.3,-1.44,9.13,-0.12,-0.46,-0.37,22.7,2
0.46,-1.98,10.34,-0.24,-0.51,-0.25,22.71,2
0.13,-3.35,11.51,-0.17,-0.38,-0.42,22.71,2
0.36,-3.12,11.03,0.09,0.16,0.1,22.69,2
0.24,-2.98,10.8,0.21,0.31,0.28,22.69,2
0.65,-1.36,9.66,0.18,0.22,0.41,22.69,2
0.32,-0.14,8.93,0.06,0.14,0.51,22.69,2
0.84,1.05,8.78,0.2,0.41,0.75,22.69,2
-0.71,0.95,8.33,-0.14,0.43,0.79,22.69,2
-0.75,1.04,8.04,0.17,0.25,0.61,22.69,2
-0.58,2.44,6.96,0.23,-0.0,0.36,22.7,2
-0.99,1.7,7.53,-0.32,0.12,-0.12,22.69,2
-1.07,2.3,6.64,0.09,-0.02,-0.46,22.69,2
-1.72,0.87,8.17,-0.27,-0.13,-0.46,22.7,2
-1.18,-0.39,9.33,-0.28,-0.49,-0.6,22.7,2
-0.13,-0.4,9.65,-0.2,-0.62,-0.61,22.7,2
1.01,-0.54,9.72,0.04,-0.46,-0.48,22.7,2
0.82,-0.58,9.85,0.04,-0.47,-0.43,22.71,2
1.44,-1.91,10.72,-0.03,-0.54,-0.41,22.7,2
1.39,-3.36,11.38,-0.07,0.02,0.02,22.7,2
1.01,-2.7,11.12,0.21,0.33,0.28,22.71,2
0.72,-1.18,10.39,0.17,0.57,0.43,22.7,2
0.24,0.19,9.25,-0.14,0.41,0.37,22.7,2
0.81,-0.3,8.58,0.27,0.15,0.35,22.7,2
-0.19,0.14,8.57,0.27,0.12,0.42,22.7,2
-0.02,0.46,8.63,0.05,0.13,0.52,22.69,2
-0.45,0.9,8.0,0.15,0.21,0.49,22.7,2
-0.46,2.03,7.55,0.27,0.07,0.43,22.7,2
-1.37,2.5,7.71,-0.21,0.17,-0.01,22.69,2
-1.16,2.23,7.37,-0.1,0.04,-0.42,22.7,2
-1.38,0.73,8.04,-0.31,-0.14,-0.64,22.69,2
-1.14,-1.09,9.23,-0.3,-0.31,-0.4,22.7,2
-0.19,-0.54,9.54,-0.15,-0.35,-0.26,22.69,2
-0.51,-1.99,9.14,-0.27,-0.5,-0.35,22.69,2
1.13,-1.66,9.91,0.15,-0.59,-0.47,22.7,2
0.64,-2.29,10.38,-0.05,-0.32,-0.44,22.7,2
1.23,-3.17,11.31,-0.11,-0.09,-0.18,22.7,2
0.5,-3.35,11.46,0.17,0.15,0.21,22.7,2
0.7,-2.08,10.41,0.22,0.37,0.42,22.7,2
0.39,-0.11,9.17,-0.15,0.38,0.4,22.7,2
0.45,0.04,8.58,0.25,0.17,0.43,22.7,2
-0.77,0.78,8.8,0.23,0.25,0.37,22.69,2
-0.44,0.6,8.47,-0.26,0.06,0.42,22.7,2
-1.13,0.28,7.83,0.15,0.07,0.62,22.69,2
-0.23,2.08,6.68,0.05,0.0,0.39,22.69,2
-0.91,1.4,7.58,-0.36,0.12,0.03,22.69,2
-1.89,1.29,7.67,-0.2,0.12,-0.27,22.7,2
-1.08,0.02,8.57,-0.26,-0.17,-0.33,22.7,2
-0.72,-1.82,9.76,-0.44,-0.19,-0.28,22.69,2
-1.11,-1.58,8.75,0.29,-0.36,-0.64,22.69,2
0.29,-1.38,9.61,0.38,-0.87,-0.77,22.69,2
0.92,-1.77,11.03,0.31,-0.84,-0.7,22.69,2
0.79,-3.16,11.82,-0.22,-0.05,-0.13,22.7,2
0.95,-2.71,10.86,-0.02,0.2,0.3,22.7,2
1.2,-1.77,10.11,0.18,0.5,0.59,22.7,2
0.17,-0.41,8.93,0.1,0.38,0.58,22.7,2
-0.19,0.21,8.71,0.35,-0.02,0.18,22.69,2
-0.1,0.48,9.0,0.33,0.2,0.33,22.69,2
-0.7,0.39,8.72,-0.01,0.6,0.96,22.69,2
-0.74,1.73,8.61,0.26,0.3,0.56,22.69,2
-1.2,2.01,6.74,-0.06,0.12,0.38,22.68,2
-1.43,2.74,6.52,-0.22,-0.05,-0.03,22.69,2
-0.87,2.52,7.2,-0.24,-0.16,-0.46,22.69,2
-1.56,1.05,7.99,-0.22,-0.29,-0.64,22.69,2
-0.56,0.2,9.42,-0.08,-0.75,-0.85,22.69,2
0.69,0.84,9.58,0.05,-0.6,-0.55,22.69,2
0.89,0.01,9.67,-0.1,-0.4,-0.44,22.69,2
0.77,-1.11,10.34,-0.28,-0.45,-0.46,22.7,2
1.24,-2.14,10.76,-0.04,-0.44,-0.32,22.7,2
1.11,-3.28,11.28,-0.1,-0.0,-0.01,22.7,2
0.89,-2.89,11.34,0.12,0.36,0.21,22.7,2
0.46,-1.51,9.97,0.29,0.47,0.48,22.7,2
0.3,-0.11,8.95,-0.11,0.37,0.5,22.69,2
0.98,0.3,8.95,-0.04,0.21,0.39,22.7,2
0.01,0.39,8.76,-0.07,0.38,0.46,22.7,2
-0.48,0.59,8.36,-0.2,0.26,0.4,22.68,2
-1.42,0.44,8.18,0.18,0.03,0.47,22.68,2
-0.45,1.9,7.43,0.17,-0.01,0.23,22.69,2
-0.85,1.72,7.76,-0.1,-0.02,-0.1,22.7,2
-0.46,1.75,7.49,-0.04,-0.04,-0.32,22.7,2
-1.73,-0.28,8.56,-0.08,-0.24,-0.69,22.7,2
-1.16,-0.36,8.79,-0.18,-0.44,-0.48,22.7,2
-0.53,-1.43,9.89,-0.43,-0.26,-0.48,22.69,2
-0.51,-0.98,9.17,0.08,-0.46,-0.59,22.7,2
0.58,-1.74,10.4,0.14,-0.64,-0.54,22.71,2
0.86,-1.12,10.41,0.26,-0.47,-0.38,22.71,2
1.06,-2.71,11.18,-0.05,0.03,-0.01,22.7,2
0.78,-2.38,10.92,0.17,0.27,0.31,22.7,2
0.66,-0.96,10.5,0.3,0.52,0.62,22.69,2
0.19,0.61,9.47,0.01,0.39,0.42,22.69,2
0.25,0.66,8.91,0.19,0.08,0.31,22.69,2
-0.22,1.34,8.64,0.05,0.17,0.38,22.7,2
0.11,1.5,8.37,-0.18,0.17,0.36,22.69,2
-1.46,0.35,8.29,-0.08,0.25,0.73,22.69,2
-0.02,3.01,6.24,0.13,-0.07,0.32,22.69,2
-0.48,2.14,6.97,-0.24,0.16,0.23,22.69,2
-1.02,1.97,7.63,-0.21,-0.27,-0.9,22.69,2
-0.19,0.38,9.74,0.04,-0.57,-1.03,22.7,2
0.74,0.2,10.18,0.17,-0.51,-0.74,22.69,2
1.27,0.31,9.59,-0.02,-0.2,-0.42,22.69,2
0.45,-0.03,9.25,0.17,-0.46,-0.51,22.69,2
0.93,-0.92,10.48,-0.2,-0.61,-0.35,22.71,2
1.4,-2.0,11.44,-0.2,-0.27,-0.22,22.7,2
1.16,-2.08,10.26,0.03,0.2,0.11,22.7,2
1.03,-1.88,10.65,0.24,0.18,0.25,22.7,2
0.55,-1.06,10.41,0.14,0.34,0.5,22.7,2
1.03,0.41,9.45,0.02,0.24,0.49,22.71,2
1.36,1.21,8.92,0.24,0.33,0.56,22.69,2
-0.3,0.88,8.62,-0.06,0.55,0.81,22.69,2
-1.05,1.11,8.56,-0.23,0.36,0.83,22.69,2
-0.31,2.1,7.19,0.11,0.08,0.78,22.69,2
-0.17,4.47,6.36,0.32,0.11,0.22,22.69,2
-0.75,3.7,7.07,-0.17,0.03,-0.44,22.68,2
-0.72,1.61,8.45,-0.25,-0.41,-1.13,22.69,2
0.33,0.08,9.28,-0.13,-0.49,-0.85,22.69,2
0.97,-1.18,10.05,-0.26,-0.47,-0.51,22.69,2
0.69,-1.11,9.53,-0.2,-0.48,-0.39,22.69,2
0.48,-2.05,10.02,-0.33,-0.32,-0.3,22.7,2
1.7,-1.35,10.89,-0.04,-0.31,-0.33,22.69,2
1.05,-2.89,11.19,-0.02,0.12,-0.06,22.69,2
1.02,-2.54,10.84,0.0,0.29,0.12,22.69,2
0.95,-1.49,9.94,0.17,0.27,0.47,22.69,2
1.08,-0.17,9.05,0.13,0.07,0.27,22.69,2
1.25,0.84,8.98,0.14,0.33,0.74,22.69,2
0.09,1.12,8.59,-0.0,0.43,0.54,22.69,2
-0.54,1.36,8.53,-0.11,0.27,0.46,22.68,2
-0.26,1.27,8.06,0.23,0.08,0.45,22.68,2
-0.02,3.03,6.99,0.19,0.12,0.22,22.68,2
-0.47,2.38,7.43,-0.3,0.1,-0.09,22.68,2
-0.76,1.78,7.31,-0.29,-0.03,-0.46,22.69,2
-1.07,0.64,8.46,-0.18,-0.35,-0.58,22.68,2
-0.62,-1.01,9.51,-0.27,-0.51,-0.71,22.69,2
-0.69,-1.48,9.51,-0.19,-0.28,-0.44,22.69,2
0.59,-1.23,9.5,0.08,-0.72,-0.5,22.69,2
1.48,-1.61,10.2,-0.22,-0.39,-0.33,22.69,2
1.18,-2.75,10.59,-0.37,-0.28,-0.37,22.69,2
1.28,-3.92,11.35,0.16,0.07,0.03,22.69,2
1.27,-3.49,11.04,0.2,0.38,0.15,22.68,2
1.14,-1.59,10.16,0.25,0.49,0.38,22.69,2
1.02,-0.73,8.86,0.05,0.3,0.51,22.68,2
0.74,1.24,7.95,-0.06,0.62,1.0,22.69,2
-1.4,0.43,7.67,-0.16,0.23,0.85,22.68,2
-0.2,2.07,7.53,0.16,-0.18,0.47,22.68,2
0.2,2.4,7.32,-0.01,0.11,0.05,22.67,2
-0.62,1.27,7.45,-0.03,0.07,-0.34,22.68,2
-0.55,1.73,7.46,-0.12,-0.21,-0.87,22.68,2
-0.48,-0.5,8.46,-0.22,-0.36,-0.57,22.68,2
0.13,-0.45,9.45,0.17,-0.41,-0.26,22.69,2
0.47,-0.79,9.95,-0.06,-0.71,-0.34,22.68,2
0.83,-1.38,10.29,-0.29,-0.5,-0.37,22.68,2
1.59,-2.22,11.18,-0.22,-0.33,-0.38,22.69,2
1.36,-2.61,10.23,-0.12,0.09,-0.03,22.69,2
0.78,-2.77,10.52,0.27,0.16,0.29,22.69,2
0.87,-2.05,10.6,0.35,0.34,0.56,22.69,2
0.25,-0.25,10.48,0.25,0.38,0.59,22.68,2
0.76,1.32,9.07,0.37,0.25,0.38,22.68,2
1.0,1.54,8.55,0.17,0.5,0.56,22.67,2
-0.95,0.89,8.1,-0.07,0.36,0.77,22.68,2
-0.2,2.34,7.93,0.2,0.03,0.52,22.68,2
0.24,4.09,6.95,0.1,0.27,0.11,22.67,2
-0.91,2.23,6.96,-0.13,0.14,-0.36,22.68,2
-1.24,1.64,7.57,-0.32,-0.32,-0.83,22.68,2
-0.8,-0.67,9.79,-0.09,-0.48,-0.87,22.68,2
0.08,-1.04,9.73,-0.21,-0.38,-0.62,22.67,2
0.46,-1.82,8.87,-0.08,-0.54,-0.58,22.68,2
0.39,-1.97,9.73,-0.1,-0.41,-0.27,22.68,2
1.06,-1.86,10.38,-0.02,-0.4,-0.31,22.69,2
1.07,-2.86,11.32,-0.0,-0.21,-0.18,22.69,2
1.23,-3.3,11.67,0.06,0.39,0.28,22.68,2
0.7,-2.13,10.22,0.23,0.58,0.54,22.68,2
0.09,-0.53,9.03,-0.12,0.36,0.47,22.68,2
0.38,-0.95,8.58,-0.04,0.28,0.56,22.69,2
0.02,0.36,7.86,-0.13,0.26,0.56,22.67,2
-0.49,0.64,7.99,-0.29,0.1,0.62,22.67,2
-0.61,1.2,7.29,0.02,-0.08,0.55,22.68,2
-0.02,2.7,7.69,0.11,-0.07,0.22,22.67,2
-0.37,1.91,7.33,-0.09,0.19,-0.17,22.68,2
-1.11,0.44,7.47,-0.1,0.03,-0.55,22.68,2
-1.2,-0.52,8.59,0.01,-0.4,-1.0,22.68,2
-0.14,-0.74,9.41,0.02,-0.58,-0.92,22.69,2
0.31,-2.22,9.75,-0.17,-0.43,-0.61,22.68,2
0.57,-2.57,10.12,-0.02,-0.52,-0.32,22.68,2
0.71,-2.38,9.78,-0.15,-0.3,-0.18,22.68,2
0.69,-2.79,10.76,-0.13,-0.17,-0.17,22.68,2
0.62,-3.53,11.36,0.26,0.04,0.11,22.69,2
0.22,-2.9,10.81,0.21,0.39,0.35,22.68,2
0.31,-1.04,9.67,0.02,0.39,0.45,22.69,2
0.89,-0.55,8.49,0.29,0.05,0.26,22.67,2
0.44,0.42,8.49,0.28,0.33,0.97,22.67,2
-0.67,1.02,7.93,0.04,0.18,0.84,22.67,2
-0.38,0.83,8.06,-0.14,0.06,0.51,22.67,2
-0.22,1.16,6.81,0.11,0.01,0.31,22.67,2
-0.87,1.32,7.55,-0.06,0.2,0.11,22.67,2
-1.35,1.27,7.67,-0.11,0.04,-0.62,22.68,2
-1.12,-0.19,8.68,-0.08,-0.17,-0.66,22.67,2
-0.57,-0.54,9.26,-0.2,-0.38,-0.78,22.68,2
-1.0,-2.39,9.65,0.1,-0.59,-0.83,22.68,2
-0.0,-2.38,9.48,0.09,-0.61,-0.61,22.69,2
0.38,-2.59,10.13,-0.14,-0.55,-0.49,22.66,2
1.17,-2.33,9.8,-0.14,-0.25,-0.34,22.67,2
0.14,-5.23,10.98,-0.0,-0.01,-0.04,22.67,2
0.63,-4.43,11.09,0.24,0.32,0.41,22.67,2
0.54,-3.0,9.76,0.42,0.36,0.71,22.67,2
0.06,-0.56,9.02,-0.0,0.42,0.8,22.67,2
0.38,-0.3,9.21,0.37,0.16,0.44,22.67,2
-0.45,0.97,8.83,-0.12,0.36,0.46,22.66,2
-0.43,0.68,8.62,-0.27,0.26,0.48,22.66,2
-1.78,-0.48,7.34,-0.04,0.11,0.48,22.65,2
-0.57,0.84,6.45,0.07,-0.09,0.19,22.65,2
-0.39,1.62,7.29,0.21,-0.0,-0.1,22.66,2
-1.57,0.73,8.54,-0.29,-0.13,-0.76,22.66,2
-0.85,-1.13,8.83,-0.29,-0.19,-0.92,22.66,2
-1.12,-2.89,8.69,-0.2,-0.27,-0.7,22.67,2
-0.33,-2.85,8.32,0.04,-0.58,-0.6,22.66,2
0.16,-2.42,9.19,0.15,-0.78,-0.48,22.66,2
1.27,-3.2,10.98,-0.16,-0.55,-0.51,22.67,2
1.49,-4.59,10.88,-0.11,-0.07,-0.17,22.68,2
0.93,-4.13,10.21,0.25,0.04,0.15,22.67,2
0.83,-3.85,10.69,0.39,0.27,0.4,22.66,2
0.88,-1.3,9.58,0.24,0.43,0.63,22.67,2
0.31,-0.14,8.56,0.25,0.11,0.07,22.66,2
0.03,0.36,8.41,0.48,0.26,0.31,22.65,2
-0.42,0.51,8.47,0.29,0.11,0.41,22.66,2
-1.27,0.3,8.17,-0.09,0.09,0.37,22.66,2
0.03,1.71,7.36,0.06,-0.15,0.42,22.66,2
-0.48,2.21,7.5,0.17,0.02,0.28,22.66,2
-0.89,1.93,7.35,-0.35,0.25,-0.3,22.66,2
-1.91,-0.75,8.44,-0.04,-0.29,-0.92,22.67,2
-0.24,-1.22,9.34,0.17,-0.58,-0.83,22.67,2
-0.16,-1.77,8.96,-0.05,-0.51,-0.34,22.66,2
0.86,-1.61,9.47,0.15,-0.46,-0.37,22.66,2
0.42,-1.68,9.8,0.01,-0.45,-0.47,22.67,2
0.47,-2.19,10.37,-0.29,-0.28,-0.42,22.67,2
0.62,-4.41,11.24,-0.09,-0.02,-0.1,22.67,2
0.65,-4.37,11.15,0.19,0.14,0.1,22.66,2
1.32,-3.16,10.05,0.47,0.3,0.37,22.67,2
0.8,-0.41,9.38,0.05,0.45,0.63,22.66,2
0.44,0.1,8.51,0.23,0.34,0.58,22.65,2
-0.87,0.33,8.21,0.16,0.42,0.8,22.66,2
-1.04,-0.05,8.34,-0.08,0.31,0.84,22.66,2
-1.84,1.12,6.89,0.11,-0.14,0.66,22.66,2
-0.35,1.63,7.16,-0.02,-0.13,-0.06,22.65,2
-0.39,1.92,7.31,0.23,0.0,-0.34,22.65,2
-1.18,0.31,8.14,-0.25,-0.18,-0.75,22.66,2
-0.41,-1.53,9.75,-0.03,-0.33,-0.69,22.66,2
-0.44,-1.91,9.21,0.17,-0.41,-0.47,22.66,2
-0.5,-1.64,9.45,0.32,-0.66,-0.53,22.67,2
0.74,-1.77,10.63,-0.12,-0.58,-0.37,22.67,2
0.88,-2.26,10.23,-0.33,-0.37,-0.53,22.67,2
0.68,-4.14,11.26,0.17,-0.09,-0.01,22.67,2
1.41,-3.22,10.89,0.43,0.41,0.45,22.67,2
0.98,-1.11,9.95,0.23,0.63,0.74,22.67,2
0.07,-0.11,8.64,0.15,0.35,0.58,22.67,2
-0.26,0.32,8.85,0.19,0.15,0.28,22.66,2
-0.74,-0.04,8.81,0.05,0.08,0.27,22.65,2
-0.96,0.61,8.74,-0.06,0.19,0.48,22.65,2
-1.07,1.6,7.23,0.06,0.07,0.54,22.64,2
-0.06,2.66,6.71,0.2,-0.11,0.16,22.65,2
0.02,3.0,7.65,-0.14,0.01,-0.11,22.65,2
-1.01,1.91,8.28,-0.19,-0.15,-0.91,22.66,2
-0.36,-0.4,9.19,-0.08,-0.39,-0.86,22.66,2
-0.05,-1.05,9.12,-0.2,-0.41,-0.62,22.66,2
-0.04,-0.88,8.92,-0.1,-0.79,-0.94,22.65,2
1.39,-1.63,10.13,-0.08,-0.78,-0.65,22.66,2
2.05,-2.77,11.89,-0.06,-0.39,-0.39,22.65,2
1.53,-3.65,10.56,-0.03,0.12,0.08,22.66,2
1.08,-3.4,10.72,0.28,0.24,0.32,22.66,2
1.66,-1.48,10.31,0.46,0.36,0.6,22.66,2
0.82,0.02,8.99,0.09,0.26,0.34,22.66,2
1.33,0.25,8.96,0.1,0.2,0.35,22.66,2
-0.08,-0.21,8.93,-0.07,0.28,0.4,22.65,2
-0.37,0.58,8.8,-0.1,0.07,0.55,22.64,2
0.11,1.37,7.89,-0.05,0.06,0.51,22.66,2
-0.31,1.92,6.89,0.21,0.03,0.26,22.65,2
0.07,2.41,7.87,-0.3,0.04,-0.07,22.65,2
-0.23,1.52,8.04,-0.18,0.11,-0.48,22.66,2
-0.48,-0.81,8.35,-0.41,0.08,-0.61,22.66,2
-0.49,-1.82,8.82,-0.13,-0.3,-0.54,22.66,2
-0.41,-2.52,9.47,-0.24,-0.56,-0.6,22.67,2
0.22,-2.73,9.7,-0.23,-0.75,-0.56,22.67,2
1.73,-3.21,10.88,-0.28,-0.37,-0.45,22.66,2
1.87,-3.44,10.26,-0.04,-0.02,-0.16,22.66,2
1.12,-3.85,10.11,0.27,0.15,0.17,22.67,2
1.14,-3.12,10.47,0.57,0.31,0.58,22.66,2
0.65,-0.34,10.04,0.32,0.48,0.69,22.65,2
0.4,0.62,8.74,0.36,0.16,0.29,22.65,2
0.61,1.02,8.95,0.14,0.27,0.28,22.65,2
0.03,0.39,8.41,0.17,0.39,0.86,22.64,2
-0.7,1.59,8.04,0.15,0.08,0.41,22.65,2
-0.16,1.57,7.8,0.39,0.16,0.3,22.65,2
-1.35,3.41,7.41,0.05,0.03,0.06,22.64,2
0.18,2.45,7.28,-0.27,0.06,-0.05,22.64,2
-1.54,1.03,7.25,-0.39,-0.18,-0.65,22.65,2
-1.17,-0.13,8.26,0.09,-0.74,-0.97,22.67,2
0.59,-0.64,10.28,-0.2,-0.74,-0.87,22.66,2
0.12,-1.65,10.09,-0.1,-0.45,-0.58,22.66,2
1.8,-1.89,10.26,-0.2,-0.51,-0.59,22.65,2
1.21,-3.39,10.41,-0.09,-0.22,-0.42,22.66,2
1.06,-4.27,10.74,0.17,0.0,0.05,22.65,2
1.19,-3.42,10.73,0.43,0.28,0.44,22.65,2
1.19,-1.19,9.71,0.49,0.34,0.67,22.65,2
0.58,0.58,9.01,0.18,0.17,0.37,22.65,2
0.36,0.44,8.84,-0.07,0.34,0.47,22.66,2
-0.81,-0.25,8.71,-0.35,0.55,0.49,22.66,2
-0.79,-0.53,8.78,-0.19,0.26,0.22,22.65,2
-0.42,0.51,7.85,0.2,0.02,0.38,22.64,2
-0.4,1.02,7.36,0.11,-0.06,0.21,22.64,2
-0.35,1.81,7.97,0.01,0.01,0.07,22.65,2
-0.82,1.53,7.76,-0.18,-0.02,-0.25,22.66,2
-2.12,-0.58,8.37,-0.19,-0.23,-0.78,22.64,2
-1.31,-0.82,8.85,0.12,-0.31,-0.75,22.65,2
-0.52,-1.5,8.82,0.15,-0.73,-0.75,22.65,2
1.11,-1.2,10.52,0.12,-0.52,-0.33,22.66,2
0.72,-1.79,10.09,-0.13,-0.39,-0.47,22.65,2
0.9,-2.07,9.93,-0.02,-0.53,-0.42,22.66,2
1.47,-2.93,11.05,0.01,-0.17,-0.14,22.65,2
1.43,-3.27,11.25,0.27,0.24,0.24,22.66,2
1.06,-1.89,10.19,0.5,0.46,0.7,22.67,2
1.3,0.67,9.41,0.03,0.43,0.49,22.65,2
1.25,1.43,9.19,0.06,0.31,0.43,22.65,2
-0.39,0.93,8.75,-0.21,0.53,0.46,22.65,2
-0.86,0.52,8.22,-0.44,0.36,0.64,22.65,2
-0.87,0.44,8.11,-0.41,0.15,0.51,22.66,2
0.35,1.64,6.48,0.13,-0.02,0.25,22.65,2
-0.18,1.63,7.37,0.06,0.17,-0.01,22.64,2
-1.09,1.26,7.74,-0.27,0.0,-0.46,22.65,2
-1.7,-0.99,8.8,-0.25,-0.21,-0.57,22.65,2
-0.56,-1.29,9.53,-0.24,-0.29,-0.5,22.65,2
-0.41,-1.54,9.61,0.05,-0.51,-0.52,22.65,2
0.2,-2.23,9.93,-0.11,-0.66,-0.61,22.65,2
1.3,-2.36,10.63,0.04,-0.48,-0.46,22.66,2
1.31,-3.73,11.05,-0.16,-0.06,-0.12,22.65,2
1.14,-3.66,11.19,0.27,0.17,0.2,22.65,2
0.78,-2.5,10.42,0.38,0.5,0.65,22.65,2
0.47,-0.21,9.41,0.21,0.36,0.69,22.64,2
1.76,1.32,8.99,0.41,0.32,0.4,22.64,2
0.44,1.67,8.82,0.25,0.43,0.6,22.63,2
-0.8,1.59,8.22,-0.39,0.15,0.26,22.64,2
-0.83,0.92,7.51,-0.09,-0.02,0.37,22.64,2
-0.27,1.33,7.42,-0.07,-0.02,0.13,22.64,2
-0.5,1.39,7.75,-0.11,0.02,-0.1,22.64,2
-0.98,0.76,7.97,-0.3,0.14,-0.26,22.63,2
-0.61,-0.18,9.68,-0.22,-0.15,-0.43,22.65,2
-0.66,-1.63,9.72,-0.45,0.1,-0.22,22.65,2
-0.69,-1.44,9.3,-0.28,-0.07,-0.13,22.65,2
-0.09,-1.52,9.0,0.03,-0.46,-0.45,22.65,2
0.83,-1.48,10.24,0.18,-0.64,-0.47,22.64,2
0.89,-2.75,11.18,-0.14,-0.3,-0.37,22.65,2
0.62,-2.89,10.42,0.15,0.11,0.08,22.65,2
0.94,-2.22,10.22,0.44,0.22,0.33,22.64,2
0.67,-0.95,10.16,0.12,0.33,0.4,22.64,2
0.09,0.17,9.2,0.19,0.08,0.22,22.64,2
0.71,0.66,9.15,-0.0,-0.02,-0.07,22.63,2
-0.05,0.7,8.88,-0.29,0.23,0.43,22.64,2
-0.13,0.96,8.26,-0.01,0.06,0.59,22.64,2
-0.02,1.62,7.82,-0.17,0.01,0.53,22.64,2
0.37,2.04,6.87,-0.0,0.18,-0.01,22.64,2
0.16,1.49,7.63,-0.17,0.38,-0.08,22.64,2
-1.3,-0.79,8.26,-0.28,-0.03,-0.58,22.64,2
-0.84,-1.24,9.03,0.07,-0.37,-0.59,22.64,2
-0.23,-0.87,9.85,-0.04,-0.28,-0.36,22.64,2
0.5,-0.94,9.77,0.21,-0.67,-0.53,22.64,2
1.15,-1.89,10.49,-0.06,-0.7,-0.51,22.64,2
0.76,-3.39,11.41,-0.15,-0.21,-0.27,22.65,2
1.02,-2.59,10.84,0.29,0.06,0.05,22.64,2
0.61,-2.24,10.62,0.3,0.42,0.39,22.65,2
1.03,-0.07,9.17,0.09,0.29,0.3,22.65,2
0.66,0.43,8.93,0.24,-0.08,0.14,22.64,2
0.81,0.77,9.16,0.04,0.2,0.38,22.63,2
0.29,0.52,8.67,-0.11,0.12,0.21,22.62,2
0.05,0.42,8.27,-0.07,0.07,0.35,22.64,2
0.08,0.7,7.84,0.11,-0.08,0.5,22.63,2
0.61,2.38,7.22,0.13,0.1,0.14,22.64,2
0.04,2.15,7.45,0.02,0.16,-0.17,22.64,2
-0.49,1.12,8.16,-0.46,-0.21,-0.59,22.63,2
0.44,-0.87,9.43,-0.36,-0.2,-0.7,22.64,2
-0.16,-1.17,8.46,-0.13,-0.22,-0.6,22.65,2
-0.38,-2.37,8.94,0.18,-0.42,-0.28,22.65,2
0.8,-1.93,10.42,0.14,-0.6,-0.32,22.65,2
1.18,-2.66,10.87,-0.08,-0.45,-0.55,22.64,2
0.75,-4.01,10.88,0.07,0.15,0.01,22.64,2
0.59,-3.11,10.53,0.3,0.27,0.39,22.64,2
0.41,-1.19,10.05,0.3,0.26,0.51,22.64,2
-0.22,0.15,9.05,-0.09,0.07,0.25,22.64,2
1.0,0.24,8.96,0.16,0.02,0.05,22.64,2
0.43,1.04,8.86,-0.03,0.25,0.21,22.64,2
-0.68,0.17,8.34,-0.29,0.19,0.42,22.64,2
-0.32,0.62,7.49,-0.05,-0.06,0.47,22.64,2
0.38,1.17,7.04,-0.16,0.09,0.32,22.63,2
0.21,0.7,7.83,0.07,0.08,0.08,22.64,2
-0.36,0.35,8.51,0.17,0.09,-0.52,22.63,2
-0.22,0.73,9.57,0.31,-0.21,-0.55,22.63,2
-0.55,-0.49,9.55,-0.28,-0.1,-0.61,22.64,2
-0.72,-0.93,9.22,0.15,-0.52,-0.5,22.64,2
0.71,-0.68,9.4,0.03,-0.72,-0.34,22.64,2
0.96,-1.46,11.26,-0.15,-0.42,-0.32,22.64,2
1.09,-2.57,11.45,0.07,0.07,0.06,22.64,2
0.29,-2.08,10.83,0.17,0.42,0.31,22.64,2
0.58,-0.64,10.18,0.23,0.33,0.45,22.64,2
-0.09,0.8,8.81,0.23,0.11,0.36,22.63,2
0.44,1.19,9.37,-0.06,0.13,0.05,22.63,2
0.13,0.64,8.35,-0.35,0.21,0.38,22.63,2
0.18,1.08,7.91,-0.2,0.09,0.19,22.63,2
-0.71,-0.05,7.72,-0.03,-0.13,0.57,22.64,2
0.68,1.55,7.62,0.22,0.02,0.21,22.64,2
0.43,1.74,7.37,0.27,0.11,-0.14,22.63,2
-0.79,1.94,6.45,-0.05,0.05,-0.26,22.63,2
-0.96,0.36,8.54,-0.25,-0.29,-0.64,22.62,2
-0.79,-0.52,9.69,-0.04,-0.66,-0.52,22.63,2
0.8,-0.99,10.64,-0.22,-0.48,-0.31,22.64,2
0.35,-1.67,10.75,-0.21,-0.35,-0.52,22.64,2
0.56,-3.64,11.87,-0.27,-0.13,-0.33,22.64,2
0.49,-2.72,10.92,0.21,0.1,0.19,22.64,2
0.9,-1.4,10.37,0.25,0.3,0.45,22.64,2
0.87,0.1,9.15,0.12,0.5,0.62,22.63,2
0.86,0.33,8.58,0.21,0.18,0.52,22.63,2
-0.2,0.77,9.3,0.12,0.16,0.5,22.62,2
0.2,1.11,8.96,-0.21,0.25,0.54,22.62,2
-0.77,1.04,8.02,-0.06,0.11,0.49,22.64,2
-0.0,1.29,7.43,-0.09,-0.05,0.34,22.62,2
0.83,2.6,7.73,-0.05,0.11,0.09,22.62,2
-0.63,1.82,7.06,-0.31,0.49,0.05,22.63,2
-1.17,-0.17,8.65,-0.16,-0.17,-0.68,22.64,2
-0.49,-1.13,9.78,-0.18,-0.32,-0.57,22.63,2
-0.57,-1.48,9.68,-0.06,-0.39,-0.39,22.63,2
-0.01,-1.0,9.59,0.05,-0.51,-0.37,22.63,2
0.53,-1.13,10.74,0.06,-0.76,-0.49,22.63,2
1.33,-2.58,11.87,-0.26,-0.11,-0.21,22.64,2
0.76,-2.28,10.98,0.05,0.26,0.11,22.64,2
0.86,-1.82,10.7,0.11,0.48,0.52,22.64,2
0.63,-0.38,9.04,-0.01,0.43,0.76,22.63,2
0.98,0.76,9.17,0.24,0.28,0.54,22.63,2
0.09,1.17,8.38,-0.09,0.32,0.34,22.63,2
-1.3,-0.44,8.19,-0.1,0.21,0.35,22.63,2
0.14,0.5,8.14,0.44,-0.08,0.32,22.63,2
0.28,1.97,7.33,0.13,0.11,0.28,22.62,2
0.22,1.59,7.03,0.13,0.05,0.09,22.63,2
-1.37,2.35,7.5,-0.25,0.17,-0.11,22.62,2
-1.68,-0.12,8.4,-0.24,-0.23,-0.44,22.63,2
-0.62,-0.4,8.97,-0.13,-0.39,-0.41,22.63,2
-0.2,-1.42,9.02,-0.2,-0.47,-0.43,22.63,2
0.62,-1.47,9.88,0.19,-0.64,-0.56,22.63,2
1.48,-2.97,11.37,-0.07,-0.49,-0.57,22.63,2
0.82,-3.46,11.43,-0.04,0.11,0.02,22.64,2
1.18,-2.61,10.9,0.1,0.33,0.24,22.63,2
0.69,-1.73,10.0,0.36,0.52,0.49,22.64,2
-0.14,-0.68,8.94,0.0,0.39,0.46,22.63,2
0.06,0.28,8.58,0.35,0.2,0.46,22.63,2
-1.19,-0.33,8.99,0.07,0.12,0.31,22.63,2
-0.58,0.37,8.12,-0.0,0.03,0.29,22.63,2
-0.81,1.03,7.74,0.12,0.14,0.62,22.62,2
0.05,2.08,7.26,0.21,-0.13,0.22,22.63,2
-0.97,2.51,7.5,-0.08,0.02,0.07,22.63,2
-0.59,2.03,7.49,-0.19,0.01,-0.29,22.63,2
-0.63,0.7,8.58,-0.25,-0.15,-0.64,22.63,2
-0.26,-0.94,9.61,-0.19,-0.1,-0.43,22.62,2
-0.43,-1.18,9.33,-0.11,-0.44,-0.46,22.63,2
-0.51,-1.48,9.77,-0.09,-0.74,-0.48,22.63,2
1.44,-3.1,11.27,-0.26,-0.71,-0.58,22.63,2
1.02,-4.09,11.38,-0.02,0.09,-0.01,22.63,2
0.52,-3.58,10.75,0.06,0.34,0.34,22.63,2
0.68,-1.83,9.99,0.38,0.32,0.63,22.63,2
0.28,-0.4,8.83,0.06,0.24,0.55,22.63,2
-0.78,0.04,8.72,0.05,0.22,0.29,22.62,2
0.39,-0.59,8.57,-0.04,0.13,0.32,22.62,2
0.67,0.85,8.86,0.37,-0.02,0.44,22.62,2
0.45,1.58,8.38,0.06,0.21,0.63,22.62,2
0.5,2.39,7.21,-0.03,0.22,0.09,22.63,2
0.15,1.55,7.32,-0.13,0.22,0.09,22.62,2
-0.57,1.01,7.89,-0.44,0.19,-0.14,22.63,2
-0.66,-1.28,9.7,-0.12,-0.31,-0.69,22.63,2
0.21,-0.85,9.71,-0.11,-0.19,-0.74,22.62,2
0.18,-1.53,9.46,0.29,-0.4,-0.67,22.62,2
0.92,-1.26,9.78,0.15,-0.62,-0.64,22.62,2
1.0,-3.17,11.47,-0.34,-0.42,-0.47,22.62,2
0.85,-3.96,10.96,-0.01,0.2,0.13,22.63,2
0.42,-3.57,10.58,0.11,0.41,0.37,22.64,2
0.04,-2.08,10.1,0.12,0.43,0.56,22.63,2
-0.45,-1.11,8.83,-0.26,0.2,0.18,22.63,2
-0.8,-0.49,8.49,0.1,-0.02,-0.05,22.63,2
-0.38,0.58,9.11,0.28,0.05,0.44,22.62,2
-0.4,1.47,8.61,0.22,0.03,0.44,22.62,2
-0.42,1.75,8.14,0.03,0.04,0.39,22.62,2
-0.67,1.02,7.37,-0.14,0.06,-0.01,22.62,2
-0.28,1.35,7.32,-0.11,0.12,-0.05,22.63,2
-1.59,0.74,7.18,-0.21,-0.01,-0.52,22.62,2
-0.96,-1.18,8.71,-0.2,-0.28,-0.76,22.63,2
-0.69,-1.58,9.32,-0.11,-0.3,-0.85,22.63,2
-0.19,-3.3,9.18,-0.14,-0.35,-0.53,22.62,2
0.47,-2.95,9.96,0.01,-0.92,-0.72,22.63,2
1.51,-4.93,12.33,-0.17,-0.32,-0.39,22.64,2
0.88,-3.88,10.71,0.13,0.2,0.13,22.63,2
0.53,-4.37,10.5,0.28,0.19,0.26,22.63,2
0.52,-2.05,9.76,0.03,0.34,0.34,22.63,2
0.57,-1.12,8.26,0.2,0.14,0.33,22.62,2
0.16,0.62,8.7,-0.05,0.32,0.7,22.61,2
-1.01,-0.13,8.13,-0.21,0.11,0.46,22.61,2
-1.2,-0.32,7.54,-0.11,-0.1,0.24,22.61,2
0.14,1.36,7.35,0.39,-0.12,0.32,22.62,2
-1.08,1.48,8.29,-0.05,0.32,0.38,22.62,2
-1.08,1.24,7.48,-0.08,0.09,-0.51,22.62,2
-1.44,-0.8,8.71,-0.15,-0.06,-0.53,22.62,2
-0.63,-1.1,9.17,0.06,-0.35,-0.67,22.62,2
0.08,-0.72,9.21,-0.18,-0.44,-0.52,22.62,2
1.22,-0.89,9.71,-0.1,-0.53,-0.53,22.62,2
0.97,-2.31,10.5,-0.42,-0.44,-0.45,22.62,2
0.91,-3.71,11.77,-0.12,-0.12,-0.22,22.62,2
1.18,-2.74,10.8,0.18,0.17,0.14,22.62,2
0.9,-2.59,10.27,0.25,0.61,0.57,22.63,2
1.1,-0.43,9.41,0.39,0.61,0.9,22.61,2
-0.67,0.88,8.95,0.22,0.43,0.59,22.62,2
-1.09,0.42,9.05,-0.04,0.23,0.25,22.62,2
-0.39,0.74,8.25,-0.07,0.11,0.37,22.61,2
-0.71,1.08,8.18,-0.03,0.05,0.85,22.61,2
-0.34,1.99,7.04,0.28,-0.09,0.38,22.62,2
-0.3,3.46,7.25,-0.14,0.14,0.21,22.62,2
-0.87,2.47,7.45,-0.23,-0.08,-0.52,22.61,2
-0.89,0.43,8.59,-0.32,-0.32,-0.89,22.62,2
-0.46,-0.37,9.51,-0.16,-0.5,-0.7,22.62,2
-0.1,-1.11,9.92,-0.35,-0.47,-0.73,22.62,2
0.77,-1.99,9.96,-0.11,-0.52,-0.53,22.62,2
1.36,-2.08,10.19,-0.18,-0.52,-0.32,22.61,2
1.64,-2.66,11.51,-0.04,-0.2,-0.18,22.63,2
1.17,-2.23,10.43,0.17,0.23,0.12,22.63,2
1.16,-2.05,10.27,0.4,0.36,0.35,22.62,2
0.85,-0.44,10.05,0.24,0.49,0.53,22.62,2
0.41,0.4,8.83,0.26,0.34,0.6,22.62,2
-0.19,0.75,9.05,0.16,0.31,0.63,22.61,2
-0.81,0.76,8.61,0.02,0.26,0.53,22.62,2
-0.55,1.62,8.12,-0.12,0.14,0.57,22.62,2
-0.1,1.51,7.81,0.13,0.08,0.57,22.62,2
-0.3,3.38,7.26,0.09,-0.02,0.1,22.62,2
